{"data":[{"rt":28231.604999979027,"stimulus":"<DIV align='left'><div>&nbsp;</div><div>Please consider this information carefully before deciding whether to participate in this research.</div><div>&nbsp;</div><div>The purpose of this research is to examine which factors influence social judgment and decision-</div><div>making. You will be asked to make judgements about individuals and actions in social scenarios.</div><div>We are simply interested in your judgement. The study will take less than 1 hour to complete,</div><div>and you will receive less than $20 on Amazon Mechanical Turk. Your compensation and time</div><div>commitment are specified in the study description. There are no anticipated risks associated with</div><div>participating in this study. The effects of participating should be comparable to those you would</div><div>ordinarily experience from viewing a computer monitor and using a mouse or keyboard for a</div><div>similar amount of time. At the end of the study, we will provide an explanation of the questions</div><div>that motivate this line of research and will describe the potential implications.</div><div>&nbsp;</div><div>Your participation in this study is completely voluntary and you may refuse to participate or you</div><div>may choose to withdraw at any time without penalty or loss of benefits to you which are</div><div>otherwise entitled. Your participation in this study will remain confidential. No personally</div><div>identifiable information will be associated with your data. Also, all analyses of the data will be</div><div>averaged across all the participants, so your individual responses will never be specifically</div><div>analyzed.</div><div>&nbsp;</div><div>If you have questions or concerns about your participation or payment, or want to request a</div><div>summary of research findings, please contact Dr. Jonathan Phillips at</div><div><a href=mailto:Jonathan.S.Phillips@dartmouth.edu>Jonathan.S.Phillips@dartmouth.edu</a>.</div><div>&nbsp;</div><div>Please save a copy of this form for your records.</div><div>&nbsp;</div></DIV><div>Agreement:</div><DIV align='left'><div>The nature and purpose of this research have been sufficiently explained and I agree to</div><div>participate in this study. I understand that I am free to withdraw at any time without incurring</div><div>any penalty. Please consent by clicking the button below to continue. Otherwise, please exit the</div><div>study at any time.</div><div>&nbsp;</div></DIV>","button_pressed":"0","trial_type":"html-button-response","trial_index":0,"time_elapsed":28234,"internal_node_id":"0.0-0.0"},{"rt":11885.804999968968,"responses":"{\"subject_id\":\"0000\"}","trial_type":"survey-text","trial_index":1,"time_elapsed":40136,"internal_node_id":"0.0-1.0"},{"rt":8443.184999981895,"responses":"{\"Q0\":\"0\",\"Q1\":\"N\",\"Q2\":\"N\",\"Q3\":\"N\"}","trial_type":"survey-text","trial_index":2,"time_elapsed":48587,"internal_node_id":"0.0-2.0"},{"rt":5650.679999962449,"responses":"{\"Q0\":\"Other\",\"Q1\":\"Ambidextrous\",\"Q2\":\"PhD\"}","question_order":"[0,1,2]","trial_type":"survey-multi-choice","trial_index":3,"time_elapsed":54242,"internal_node_id":"0.0-3.0"},{"rt":1688.1300000241026,"stimulus":"<h2> Instructions</h2><p>In this study, we'd like you to make judgments about whether something is possible or impossible. To indicate that something is possible, please press the [f] key; to indicate that something is impossible, please press the [j] key. To get you used to this, you will first go through a warm-up phase. On these trials, press [f] if you see the word 'Possible' and [j] if you see the word 'Impossible.'' ***Please take your time and answer as correctly as possible.*** </p><p>Press any key to continue</p>","key_press":32,"trial_type":"html-keyboard-response","trial_index":4,"time_elapsed":55936,"internal_node_id":"0.0-4.0"},{"rt":1615.319999982603,"correct":true,"stimulus":"Possible","key_press":70,"trial_type":"categorize-html","trial_index":5,"time_elapsed":59557,"internal_node_id":"0.0-5.0-0.0"},{"rt":4188.875000108965,"correct":true,"stimulus":"Impossible","key_press":74,"trial_type":"categorize-html","trial_index":6,"time_elapsed":65749,"internal_node_id":"0.0-5.0-0.1"},{"rt":626.759999897331,"correct":true,"stimulus":"Possible","key_press":70,"trial_type":"categorize-html","trial_index":7,"time_elapsed":68379,"internal_node_id":"0.0-5.0-0.2"},{"rt":561.0149999847636,"correct":true,"stimulus":"Impossible","key_press":74,"trial_type":"categorize-html","trial_index":8,"time_elapsed":70945,"internal_node_id":"0.0-5.0-0.3"},{"rt":556.9100000429899,"correct":true,"stimulus":"Possible","key_press":70,"trial_type":"categorize-html","trial_index":9,"time_elapsed":73507,"internal_node_id":"0.0-5.0-0.4"},{"rt":636.8449999717996,"correct":true,"stimulus":"Impossible","key_press":74,"trial_type":"categorize-html","trial_index":10,"time_elapsed":76146,"internal_node_id":"0.0-5.0-0.5"},{"rt":749.2349999956787,"correct":true,"stimulus":"Possible","key_press":70,"trial_type":"categorize-html","trial_index":11,"time_elapsed":78901,"internal_node_id":"0.0-5.0-0.6"},{"rt":621.8949999893084,"correct":true,"stimulus":"Impossible","key_press":74,"trial_type":"categorize-html","trial_index":12,"time_elapsed":81528,"internal_node_id":"0.0-5.0-0.7"},{"rt":425.1149999909103,"correct":true,"stimulus":"Impossible","key_press":74,"trial_type":"categorize-html","trial_index":13,"time_elapsed":83958,"internal_node_id":"0.0-5.0-0.8"},{"rt":629.5800000661984,"correct":true,"stimulus":"Possible","key_press":70,"trial_type":"categorize-html","trial_index":14,"time_elapsed":86590,"internal_node_id":"0.0-5.0-0.9"},{"rt":609.0649999678135,"correct":true,"stimulus":"Impossible","key_press":74,"trial_type":"categorize-html","trial_index":15,"time_elapsed":89205,"internal_node_id":"0.0-5.0-0.10"},{"rt":554.4549999758601,"correct":true,"stimulus":"Possible","key_press":70,"trial_type":"categorize-html","trial_index":16,"time_elapsed":91767,"internal_node_id":"0.0-5.0-0.11"},{"rt":925.5899999989197,"correct":true,"stimulus":"Possible","key_press":70,"trial_type":"categorize-html","trial_index":17,"time_elapsed":94696,"internal_node_id":"0.0-5.0-0.12"},{"rt":428.29499999061227,"correct":true,"stimulus":"Impossible","key_press":74,"trial_type":"categorize-html","trial_index":18,"time_elapsed":97130,"internal_node_id":"0.0-5.0-0.13"},{"rt":545.795000041835,"correct":true,"stimulus":"Impossible","key_press":74,"trial_type":"categorize-html","trial_index":19,"time_elapsed":99681,"internal_node_id":"0.0-5.0-0.14"},{"rt":558.7199999717996,"correct":true,"stimulus":"Possible","key_press":70,"trial_type":"categorize-html","trial_index":20,"time_elapsed":102242,"internal_node_id":"0.0-5.0-0.15"},{"rt":517.4649999244139,"correct":true,"stimulus":"Possible","key_press":70,"trial_type":"categorize-html","trial_index":21,"time_elapsed":104765,"internal_node_id":"0.0-5.0-0.16"},{"rt":470.1400001067668,"correct":true,"stimulus":"Impossible","key_press":74,"trial_type":"categorize-html","trial_index":22,"time_elapsed":107239,"internal_node_id":"0.0-5.0-0.17"},{"rt":354.920000070706,"correct":true,"stimulus":"Impossible","key_press":74,"trial_type":"categorize-html","trial_index":23,"time_elapsed":109598,"internal_node_id":"0.0-5.0-0.18"},{"rt":588.6300000129268,"correct":true,"stimulus":"Possible","key_press":70,"trial_type":"categorize-html","trial_index":24,"time_elapsed":112192,"internal_node_id":"0.0-5.0-0.19"},{"rt":1853.9399999426678,"stimulus":"<h2>In this part, you will read a story and then will be judging whether certain events are possible or impossible.</h2> <p>***Please answer as quickly and accurately as you possibly can. You will only have about 1 second to respond to each event.***</p> <p>Press any key to continue</p>","key_press":32,"trial_type":"html-keyboard-response","trial_index":25,"time_elapsed":114047,"internal_node_id":"0.0-6.0"},{"view_history":"[{\"page_index\":0,\"viewing_time\":1579.5100000686944},{\"page_index\":1,\"viewing_time\":1135.74499997776}]","rt":2715.7250000163913,"trial_type":"instructions","trial_index":26,"time_elapsed":116764,"internal_node_id":"0.0-7.0"},{"rt":null,"stimulus":"sell something he owns for money","key_press":null,"trial_type":"html-keyboard-response","trial_index":27,"time_elapsed":117918,"internal_node_id":"0.0-8.0-0.0","modal_type":"irrational","answered":"impossible"},{"rt":null,"stimulus":"","key_press":null,"trial_type":"html-keyboard-response","trial_index":28,"time_elapsed":118421,"internal_node_id":"0.0-8.0-1.0"},{"rt":null,"stimulus":"turn the cash register invisible","key_press":null,"trial_type":"html-keyboard-response","trial_index":29,"time_elapsed":119575,"internal_node_id":"0.0-8.1-0.1","modal_type":"irrational","answered":"impossible"},{"rt":null,"stimulus":"","key_press":null,"trial_type":"html-keyboard-response","trial_index":30,"time_elapsed":120079,"internal_node_id":"0.0-8.1-1.1"},{"rt":null,"stimulus":"ask other employees what to do","key_press":null,"trial_type":"html-keyboard-response","trial_index":31,"time_elapsed":121230,"internal_node_id":"0.0-8.2-0.2","modal_type":"irrational","answered":"impossible"},{"rt":null,"stimulus":"","key_press":null,"trial_type":"html-keyboard-response","trial_index":32,"time_elapsed":121736,"internal_node_id":"0.0-8.2-1.2"},{"rt":null,"stimulus":"use some monopoly money instead","key_press":null,"trial_type":"html-keyboard-response","trial_index":33,"time_elapsed":122888,"internal_node_id":"0.0-8.3-0.3","modal_type":"irrational","answered":"impossible"},{"rt":null,"stimulus":"","key_press":null,"trial_type":"html-keyboard-response","trial_index":34,"time_elapsed":123391,"internal_node_id":"0.0-8.3-1.3"},{"rt":null,"stimulus":"try to invent new pastries","key_press":null,"trial_type":"html-keyboard-response","trial_index":35,"time_elapsed":124543,"internal_node_id":"0.0-8.4-0.4","modal_type":"irrational","answered":"impossible"},{"rt":null,"stimulus":"","key_press":null,"trial_type":"html-keyboard-response","trial_index":36,"time_elapsed":125047,"internal_node_id":"0.0-8.4-1.4"},{"rt":null,"stimulus":"discount food to encourage tipping","key_press":null,"trial_type":"html-keyboard-response","trial_index":37,"time_elapsed":126199,"internal_node_id":"0.0-8.5-0.5","modal_type":"irrational","answered":"impossible"},{"rt":null,"stimulus":"","key_press":null,"trial_type":"html-keyboard-response","trial_index":38,"time_elapsed":126703,"internal_node_id":"0.0-8.5-1.5"},{"rt":null,"stimulus":"add in money from his daily tips","key_press":null,"trial_type":"html-keyboard-response","trial_index":39,"time_elapsed":127859,"internal_node_id":"0.0-8.6-0.6","modal_type":"irrational","answered":"impossible"},{"rt":null,"stimulus":"","key_press":null,"trial_type":"html-keyboard-response","trial_index":40,"time_elapsed":128360,"internal_node_id":"0.0-8.6-1.6"},{"rt":null,"stimulus":"explain the situation to his boss","key_press":null,"trial_type":"html-keyboard-response","trial_index":41,"time_elapsed":129516,"internal_node_id":"0.0-8.7-0.7","modal_type":"irrational","answered":"impossible"},{"rt":null,"stimulus":"","key_press":null,"trial_type":"html-keyboard-response","trial_index":42,"time_elapsed":130018,"internal_node_id":"0.0-8.7-1.7"},{"rt":null,"stimulus":"borrow money from a friend","key_press":null,"trial_type":"html-keyboard-response","trial_index":43,"time_elapsed":131173,"internal_node_id":"0.0-8.8-0.8","modal_type":"irrational","answered":"impossible"},{"rt":null,"stimulus":"","key_press":null,"trial_type":"html-keyboard-response","trial_index":44,"time_elapsed":131676,"internal_node_id":"0.0-8.8-1.8"},{"rt":null,"stimulus":"close the store five hours early","key_press":null,"trial_type":"html-keyboard-response","trial_index":45,"time_elapsed":132829,"internal_node_id":"0.0-8.9-0.9","modal_type":"irrational","answered":"impossible"},{"rt":null,"stimulus":"","key_press":null,"trial_type":"html-keyboard-response","trial_index":46,"time_elapsed":133334,"internal_node_id":"0.0-8.9-1.9"},{"rt":null,"stimulus":"write a check for $50.75","key_press":null,"trial_type":"html-keyboard-response","trial_index":47,"time_elapsed":134487,"internal_node_id":"0.0-8.10-0.10","modal_type":"irrational","answered":"impossible"},{"rt":null,"stimulus":"","key_press":null,"trial_type":"html-keyboard-response","trial_index":48,"time_elapsed":134993,"internal_node_id":"0.0-8.10-1.10"},{"rt":null,"stimulus":"take pictures of missing bills","key_press":null,"trial_type":"html-keyboard-response","trial_index":49,"time_elapsed":136147,"internal_node_id":"0.0-8.11-0.11","modal_type":"irrational","answered":"impossible"},{"rt":null,"stimulus":"","key_press":null,"trial_type":"html-keyboard-response","trial_index":50,"time_elapsed":136651,"internal_node_id":"0.0-8.11-1.11"},{"rt":null,"stimulus":"use money from his own wallet","key_press":null,"trial_type":"html-keyboard-response","trial_index":51,"time_elapsed":137805,"internal_node_id":"0.0-8.12-0.12","modal_type":"irrational","answered":"impossible"},{"rt":null,"stimulus":"","key_press":null,"trial_type":"html-keyboard-response","trial_index":52,"time_elapsed":138308,"internal_node_id":"0.0-8.12-1.12"},{"rt":null,"stimulus":"get the money by sneezing a lot","key_press":null,"trial_type":"html-keyboard-response","trial_index":53,"time_elapsed":139460,"internal_node_id":"0.0-8.13-0.13","modal_type":"irrational","answered":"impossible"},{"rt":null,"stimulus":"","key_press":null,"trial_type":"html-keyboard-response","trial_index":54,"time_elapsed":139961,"internal_node_id":"0.0-8.13-1.13"},{"rt":null,"stimulus":"get a payday advance loan","key_press":null,"trial_type":"html-keyboard-response","trial_index":55,"time_elapsed":141117,"internal_node_id":"0.0-8.14-0.14","modal_type":"irrational","answered":"impossible"},{"rt":null,"stimulus":"","key_press":null,"trial_type":"html-keyboard-response","trial_index":56,"time_elapsed":141619,"internal_node_id":"0.0-8.14-1.14"},{"rt":null,"stimulus":"pay with his retirement fund","key_press":null,"trial_type":"html-keyboard-response","trial_index":57,"time_elapsed":142772,"internal_node_id":"0.0-8.15-0.15","modal_type":"irrational","answered":"impossible"},{"rt":null,"stimulus":"","key_press":null,"trial_type":"html-keyboard-response","trial_index":58,"time_elapsed":143277,"internal_node_id":"0.0-8.15-1.15"},{"view_history":"[{\"page_index\":0,\"viewing_time\":5446.669999975711},{\"page_index\":1,\"viewing_time\":1387.3850000090897}]","rt":6834.329999983311,"trial_type":"instructions","trial_index":59,"time_elapsed":150112,"internal_node_id":"0.0-9.0"},{"rt":454.6349999727681,"stimulus":"ask for an extra-credit assignment","key_press":74,"trial_type":"html-keyboard-response","trial_index":60,"time_elapsed":150571,"internal_node_id":"0.0-10.0-0.0","modal_type":"irrational","answered":"impossible"},{"rt":null,"stimulus":"","key_press":null,"trial_type":"html-keyboard-response","trial_index":61,"time_elapsed":151072,"internal_node_id":"0.0-10.0-1.0"},{"rt":301.1549999937415,"stimulus":"have her parents call the teacher","key_press":74,"trial_type":"html-keyboard-response","trial_index":62,"time_elapsed":151374,"internal_node_id":"0.0-10.1-0.1","modal_type":"irrational","answered":"impossible"},{"rt":null,"stimulus":"","key_press":null,"trial_type":"html-keyboard-response","trial_index":63,"time_elapsed":151877,"internal_node_id":"0.0-10.1-1.1"},{"rt":116.00000003818423,"stimulus":"ask her mom to FedEx the homework","key_press":74,"trial_type":"html-keyboard-response","trial_index":64,"time_elapsed":151994,"internal_node_id":"0.0-10.2-0.2","modal_type":"irrational","answered":"impossible"},{"rt":null,"stimulus":"","key_press":null,"trial_type":"html-keyboard-response","trial_index":65,"time_elapsed":152497,"internal_node_id":"0.0-10.2-1.2"},{"rt":39.55000010319054,"stimulus":"remind herself yesterday evening","key_press":74,"trial_type":"html-keyboard-response","trial_index":66,"time_elapsed":152538,"internal_node_id":"0.0-10.3-0.3","modal_type":"irrational","answered":"impossible"},{"rt":null,"stimulus":"","key_press":null,"trial_type":"html-keyboard-response","trial_index":67,"time_elapsed":153039,"internal_node_id":"0.0-10.3-1.3"},{"rt":150.92500008177012,"stimulus":"explain what happened to her teacher","key_press":74,"trial_type":"html-keyboard-response","trial_index":68,"time_elapsed":153192,"internal_node_id":"0.0-10.4-0.4","modal_type":"irrational","answered":"impossible"},{"rt":null,"stimulus":"","key_press":null,"trial_type":"html-keyboard-response","trial_index":69,"time_elapsed":153696,"internal_node_id":"0.0-10.4-1.4"},{"rt":270.33500000834465,"stimulus":"turn in several socks instead","key_press":74,"trial_type":"html-keyboard-response","trial_index":70,"time_elapsed":153967,"internal_node_id":"0.0-10.5-0.5","modal_type":"irrational","answered":"impossible"},{"rt":null,"stimulus":"","key_press":null,"trial_type":"html-keyboard-response","trial_index":71,"time_elapsed":154470,"internal_node_id":"0.0-10.5-1.5"},{"rt":215.87000007275492,"stimulus":"turn in last week's homework again","key_press":74,"trial_type":"html-keyboard-response","trial_index":72,"time_elapsed":154686,"internal_node_id":"0.0-10.6-0.6","modal_type":"irrational","answered":"impossible"},{"rt":null,"stimulus":"","key_press":null,"trial_type":"html-keyboard-response","trial_index":73,"time_elapsed":155191,"internal_node_id":"0.0-10.6-1.6"},{"rt":46.62499995902181,"stimulus":"erase the teacher's memory","key_press":74,"trial_type":"html-keyboard-response","trial_index":74,"time_elapsed":155238,"internal_node_id":"0.0-10.7-0.7","modal_type":"irrational","answered":"impossible"},{"rt":null,"stimulus":"","key_press":null,"trial_type":"html-keyboard-response","trial_index":75,"time_elapsed":155743,"internal_node_id":"0.0-10.7-1.7"},{"rt":364.0399998985231,"stimulus":"ask her mom to bring the homework","key_press":74,"trial_type":"html-keyboard-response","trial_index":76,"time_elapsed":156108,"internal_node_id":"0.0-10.8-0.8","modal_type":"irrational","answered":"impossible"},{"rt":null,"stimulus":"","key_press":null,"trial_type":"html-keyboard-response","trial_index":77,"time_elapsed":156609,"internal_node_id":"0.0-10.8-1.8"},{"rt":34.99499999452382,"stimulus":"look under the lunchroom tables","key_press":74,"trial_type":"html-keyboard-response","trial_index":78,"time_elapsed":156645,"internal_node_id":"0.0-10.9-0.9","modal_type":"irrational","answered":"impossible"},{"rt":null,"stimulus":"","key_press":null,"trial_type":"html-keyboard-response","trial_index":79,"time_elapsed":157148,"internal_node_id":"0.0-10.9-1.9"},{"rt":202.2299999371171,"stimulus":"turn in several socks instead","key_press":74,"trial_type":"html-keyboard-response","trial_index":80,"time_elapsed":157352,"internal_node_id":"0.0-10.10-0.10","modal_type":"irrational","answered":"impossible"},{"rt":null,"stimulus":"","key_press":null,"trial_type":"html-keyboard-response","trial_index":81,"time_elapsed":157858,"internal_node_id":"0.0-10.10-1.10"},{"rt":211.1550000263378,"stimulus":"quickly redo the homework assignment","key_press":74,"trial_type":"html-keyboard-response","trial_index":82,"time_elapsed":158070,"internal_node_id":"0.0-10.11-0.11","modal_type":"irrational","answered":"impossible"},{"rt":null,"stimulus":"","key_press":null,"trial_type":"html-keyboard-response","trial_index":83,"time_elapsed":158571,"internal_node_id":"0.0-10.11-1.11"},{"rt":278.34999992046505,"stimulus":"erase the teacher's memory","key_press":74,"trial_type":"html-keyboard-response","trial_index":84,"time_elapsed":158850,"internal_node_id":"0.0-10.12-0.12","modal_type":"irrational","answered":"impossible"},{"rt":null,"stimulus":"","key_press":null,"trial_type":"html-keyboard-response","trial_index":85,"time_elapsed":159355,"internal_node_id":"0.0-10.12-1.12"},{"rt":210.72500001173466,"stimulus":"ask her mom to FedEx the homework","key_press":74,"trial_type":"html-keyboard-response","trial_index":86,"time_elapsed":159566,"internal_node_id":"0.0-10.13-0.13","modal_type":"irrational","answered":"impossible"},{"rt":null,"stimulus":"","key_press":null,"trial_type":"html-keyboard-response","trial_index":87,"time_elapsed":160070,"internal_node_id":"0.0-10.13-1.13"},{"rt":99.89499999210238,"stimulus":"pay with his retirement fund","key_press":74,"trial_type":"html-keyboard-response","trial_index":88,"time_elapsed":160171,"internal_node_id":"0.0-10.14-0.14","modal_type":"irrational","answered":"impossible"},{"rt":null,"stimulus":"","key_press":null,"trial_type":"html-keyboard-response","trial_index":89,"time_elapsed":160675,"internal_node_id":"0.0-10.14-1.14"},{"rt":72.06000003498048,"stimulus":"ask her mom what she should do","key_press":74,"trial_type":"html-keyboard-response","trial_index":90,"time_elapsed":160748,"internal_node_id":"0.0-10.15-0.15","modal_type":"irrational","answered":"impossible"},{"rt":null,"stimulus":"","key_press":null,"trial_type":"html-keyboard-response","trial_index":91,"time_elapsed":161252,"internal_node_id":"0.0-10.15-1.15"},{"rt":28.724999981932342,"stimulus":"run home to get her homework","key_press":74,"trial_type":"html-keyboard-response","trial_index":92,"time_elapsed":161282,"internal_node_id":"0.0-10.16-0.16","modal_type":"irrational","answered":"impossible"},{"rt":null,"stimulus":"","key_press":null,"trial_type":"html-keyboard-response","trial_index":93,"time_elapsed":161784,"internal_node_id":"0.0-10.16-1.16"},{"rt":63.96000005770475,"stimulus":"turn in last week's homework again","key_press":74,"trial_type":"html-keyboard-response","trial_index":94,"time_elapsed":161850,"internal_node_id":"0.0-10.17-0.17","modal_type":"irrational","answered":"impossible"},{"rt":null,"stimulus":"","key_press":null,"trial_type":"html-keyboard-response","trial_index":95,"time_elapsed":162352,"internal_node_id":"0.0-10.17-1.17"},{"rt":75.1199999358505,"stimulus":"ask her mom what she should do","key_press":74,"trial_type":"html-keyboard-response","trial_index":96,"time_elapsed":162427,"internal_node_id":"0.0-10.18-0.18","modal_type":"irrational","answered":"impossible"},{"rt":null,"stimulus":"","key_press":null,"trial_type":"html-keyboard-response","trial_index":97,"time_elapsed":162931,"internal_node_id":"0.0-10.18-1.18"},{"rt":58.24000004213303,"stimulus":"run home to get her homework","key_press":74,"trial_type":"html-keyboard-response","trial_index":98,"time_elapsed":162990,"internal_node_id":"0.0-10.19-0.19","modal_type":"irrational","answered":"impossible"},{"rt":null,"stimulus":"","key_press":null,"trial_type":"html-keyboard-response","trial_index":99,"time_elapsed":163493,"internal_node_id":"0.0-10.19-1.19"},{"rt":46.74500005785376,"stimulus":"bring in her homework tomorrow","key_press":74,"trial_type":"html-keyboard-response","trial_index":100,"time_elapsed":163540,"internal_node_id":"0.0-10.20-0.20","modal_type":"irrational","answered":"impossible"},{"rt":null,"stimulus":"","key_press":null,"trial_type":"html-keyboard-response","trial_index":101,"time_elapsed":164042,"internal_node_id":"0.0-10.20-1.20"},{"rt":1.6499999910593033,"stimulus":"quickly redo the homework assignment","key_press":74,"trial_type":"html-keyboard-response","trial_index":102,"time_elapsed":164046,"internal_node_id":"0.0-10.21-0.21","modal_type":"irrational","answered":"impossible"},{"rt":null,"stimulus":"","key_press":null,"trial_type":"html-keyboard-response","trial_index":103,"time_elapsed":164546,"internal_node_id":"0.0-10.21-1.21"},{"rt":306.8999999668449,"stimulus":"explain what happened to her teacher","key_press":74,"trial_type":"html-keyboard-response","trial_index":104,"time_elapsed":164854,"internal_node_id":"0.0-10.22-0.22","modal_type":"irrational","answered":"impossible"},{"rt":null,"stimulus":"","key_press":null,"trial_type":"html-keyboard-response","trial_index":105,"time_elapsed":165358,"internal_node_id":"0.0-10.22-1.22"},{"rt":9.154999977909029,"stimulus":"turn in a completely blank page","key_press":74,"trial_type":"html-keyboard-response","trial_index":106,"time_elapsed":165368,"internal_node_id":"0.0-10.23-0.23","modal_type":"irrational","answered":"impossible"},{"rt":null,"stimulus":"","key_press":null,"trial_type":"html-keyboard-response","trial_index":107,"time_elapsed":165869,"internal_node_id":"0.0-10.23-1.23"},{"rt":57.94999992940575,"stimulus":"bring in her homework tomorrow","key_press":74,"trial_type":"html-keyboard-response","trial_index":108,"time_elapsed":165927,"internal_node_id":"0.0-10.24-0.24","modal_type":"irrational","answered":"impossible"},{"rt":null,"stimulus":"","key_press":null,"trial_type":"html-keyboard-response","trial_index":109,"time_elapsed":166428,"internal_node_id":"0.0-10.24-1.24"},{"rt":107.95999993570149,"stimulus":"have her homework teleported","key_press":74,"trial_type":"html-keyboard-response","trial_index":110,"time_elapsed":166537,"internal_node_id":"0.0-10.25-0.25","modal_type":"irrational","answered":"impossible"},{"rt":null,"stimulus":"","key_press":null,"trial_type":"html-keyboard-response","trial_index":111,"time_elapsed":167038,"internal_node_id":"0.0-10.25-1.25"},{"rt":244.91999996826053,"stimulus":"ask her mom to bring the homework","key_press":74,"trial_type":"html-keyboard-response","trial_index":112,"time_elapsed":167284,"internal_node_id":"0.0-10.26-0.26","modal_type":"irrational","answered":"impossible"},{"rt":null,"stimulus":"","key_press":null,"trial_type":"html-keyboard-response","trial_index":113,"time_elapsed":167785,"internal_node_id":"0.0-10.26-1.26"},{"rt":149.74000002257526,"stimulus":"turn in a completely blank page","key_press":74,"trial_type":"html-keyboard-response","trial_index":114,"time_elapsed":167937,"internal_node_id":"0.0-10.27-0.27","modal_type":"irrational","answered":"impossible"},{"rt":null,"stimulus":"","key_press":null,"trial_type":"html-keyboard-response","trial_index":115,"time_elapsed":168438,"internal_node_id":"0.0-10.27-1.27"},{"rt":232.53999999724329,"stimulus":"look under the lunchroom tables","key_press":74,"trial_type":"html-keyboard-response","trial_index":116,"time_elapsed":168671,"internal_node_id":"0.0-10.28-0.28","modal_type":"irrational","answered":"impossible"},{"rt":null,"stimulus":"","key_press":null,"trial_type":"html-keyboard-response","trial_index":117,"time_elapsed":169175,"internal_node_id":"0.0-10.28-1.28"},{"rt":44.14500005077571,"stimulus":"ask for an extra-credit assignment","key_press":74,"trial_type":"html-keyboard-response","trial_index":118,"time_elapsed":169219,"internal_node_id":"0.0-10.29-0.29","modal_type":"irrational","answered":"impossible"},{"rt":null,"stimulus":"","key_press":null,"trial_type":"html-keyboard-response","trial_index":119,"time_elapsed":169722,"internal_node_id":"0.0-10.29-1.29"},{"rt":20.065000047907233,"stimulus":"have her parents call the teacher","key_press":74,"trial_type":"html-keyboard-response","trial_index":120,"time_elapsed":169743,"internal_node_id":"0.0-10.30-0.30","modal_type":"irrational","answered":"impossible"},{"rt":null,"stimulus":"","key_press":null,"trial_type":"html-keyboard-response","trial_index":121,"time_elapsed":170244,"internal_node_id":"0.0-10.30-1.30"},{"rt":69.94499999564141,"stimulus":"remind herself yesterday evening","key_press":74,"trial_type":"html-keyboard-response","trial_index":122,"time_elapsed":170314,"internal_node_id":"0.0-10.31-0.31","modal_type":"irrational","answered":"impossible"},{"rt":null,"stimulus":"","key_press":null,"trial_type":"html-keyboard-response","trial_index":123,"time_elapsed":170818,"internal_node_id":"0.0-10.31-1.31"},{"rt":228.02999999839813,"stimulus":"have her homework teleported","key_press":74,"trial_type":"html-keyboard-response","trial_index":124,"time_elapsed":171047,"internal_node_id":"0.0-10.32-0.32","modal_type":"irrational","answered":"impossible"},{"rt":null,"stimulus":"","key_press":null,"trial_type":"html-keyboard-response","trial_index":125,"time_elapsed":171549,"internal_node_id":"0.0-10.32-1.32"},{"view_history":"[{\"page_index\":0,\"viewing_time\":8937.85999994725},{\"page_index\":1,\"viewing_time\":1243.9100000774488}]","rt":10182.109999936074,"trial_type":"instructions","trial_index":126,"time_elapsed":181732,"internal_node_id":"0.0-11.0"},{"rt":340.349999954924,"stimulus":"wait to go to the gym tomorrow","key_press":70,"trial_type":"html-keyboard-response","trial_index":127,"time_elapsed":182076,"internal_node_id":"0.0-12.0-0.0","modal_type":"irrational","answered":"possible"},{"rt":null,"stimulus":"","key_press":null,"trial_type":"html-keyboard-response","trial_index":128,"time_elapsed":182578,"internal_node_id":"0.0-12.0-1.0"},{"rt":47.72999999113381,"stimulus":"\ttry again in three minutes","key_press":70,"trial_type":"html-keyboard-response","trial_index":129,"time_elapsed":182628,"internal_node_id":"0.0-12.1-0.1","modal_type":"irrational","answered":"possible"},{"rt":null,"stimulus":"","key_press":null,"trial_type":"html-keyboard-response","trial_index":130,"time_elapsed":183129,"internal_node_id":"0.0-12.1-1.1"},{"rt":238.75500005669892,"stimulus":"decide to lift weights at home","key_press":70,"trial_type":"html-keyboard-response","trial_index":131,"time_elapsed":183369,"internal_node_id":"0.0-12.2-0.2","modal_type":"irrational","answered":"possible"},{"rt":null,"stimulus":"","key_press":null,"trial_type":"html-keyboard-response","trial_index":132,"time_elapsed":183871,"internal_node_id":"0.0-12.2-1.2"},{"rt":1.0849999962374568,"stimulus":"turn her hat into a gym pass","key_press":70,"trial_type":"html-keyboard-response","trial_index":133,"time_elapsed":183873,"internal_node_id":"0.0-12.3-0.3","modal_type":"irrational","answered":"possible"},{"rt":null,"stimulus":"","key_press":null,"trial_type":"html-keyboard-response","trial_index":134,"time_elapsed":184374,"internal_node_id":"0.0-12.3-1.3"},{"rt":37.60000003967434,"stimulus":"pay for a one-day gym pass","key_press":70,"trial_type":"html-keyboard-response","trial_index":135,"time_elapsed":184412,"internal_node_id":"0.0-12.4-0.4","modal_type":"irrational","answered":"possible"},{"rt":null,"stimulus":"","key_press":null,"trial_type":"html-keyboard-response","trial_index":136,"time_elapsed":184914,"internal_node_id":"0.0-12.4-1.4"},{"rt":176.75999994389713,"stimulus":"renew her membership by blinking","key_press":70,"trial_type":"html-keyboard-response","trial_index":137,"time_elapsed":185092,"internal_node_id":"0.0-12.5-0.5","modal_type":"irrational","answered":"possible"},{"rt":null,"stimulus":"","key_press":null,"trial_type":"html-keyboard-response","trial_index":138,"time_elapsed":185595,"internal_node_id":"0.0-12.5-1.5"},{"rt":5.2900000009685755,"stimulus":"eat lunch instead of working out","key_press":70,"trial_type":"html-keyboard-response","trial_index":139,"time_elapsed":185601,"internal_node_id":"0.0-12.6-0.6","modal_type":"irrational","answered":"possible"},{"rt":null,"stimulus":"","key_press":null,"trial_type":"html-keyboard-response","trial_index":140,"time_elapsed":186106,"internal_node_id":"0.0-12.6-1.6"},{"rt":88.01000006496906,"stimulus":"turn her hat into a gym pass","key_press":70,"trial_type":"html-keyboard-response","trial_index":141,"time_elapsed":186194,"internal_node_id":"0.0-12.7-0.7","modal_type":"irrational","answered":"possible"},{"rt":null,"stimulus":"","key_press":null,"trial_type":"html-keyboard-response","trial_index":142,"time_elapsed":186699,"internal_node_id":"0.0-12.7-1.7"},{"rt":93.98999996483326,"stimulus":"run back and forth across lobby","key_press":70,"trial_type":"html-keyboard-response","trial_index":143,"time_elapsed":186793,"internal_node_id":"0.0-12.8-0.8","modal_type":"irrational","answered":"possible"},{"rt":null,"stimulus":"","key_press":null,"trial_type":"html-keyboard-response","trial_index":144,"time_elapsed":187299,"internal_node_id":"0.0-12.8-1.8"},{"rt":35.970000084489584,"stimulus":"run back and forth across lobby","key_press":70,"trial_type":"html-keyboard-response","trial_index":145,"time_elapsed":187336,"internal_node_id":"0.0-12.9-0.9","modal_type":"irrational","answered":"possible"},{"rt":null,"stimulus":"","key_press":null,"trial_type":"html-keyboard-response","trial_index":146,"time_elapsed":187840,"internal_node_id":"0.0-12.9-1.9"},{"rt":2.9199999989941716,"stimulus":"\tuse a friend's guest pass","key_press":70,"trial_type":"html-keyboard-response","trial_index":147,"time_elapsed":187845,"internal_node_id":"0.0-12.10-0.10","modal_type":"irrational","answered":"possible"},{"rt":null,"stimulus":"","key_press":null,"trial_type":"html-keyboard-response","trial_index":148,"time_elapsed":188350,"internal_node_id":"0.0-12.10-1.10"},{"rt":264.7199999773875,"stimulus":"go for a run outside instead","key_press":70,"trial_type":"html-keyboard-response","trial_index":149,"time_elapsed":188615,"internal_node_id":"0.0-12.11-0.11","modal_type":"irrational","answered":"possible"},{"rt":null,"stimulus":"","key_press":null,"trial_type":"html-keyboard-response","trial_index":150,"time_elapsed":189120,"internal_node_id":"0.0-12.11-1.11"},{"rt":26.414999971166253,"stimulus":"be allowed in just this once","key_press":70,"trial_type":"html-keyboard-response","trial_index":151,"time_elapsed":189147,"internal_node_id":"0.0-12.12-0.12","modal_type":"irrational","answered":"possible"},{"rt":null,"stimulus":"","key_press":null,"trial_type":"html-keyboard-response","trial_index":152,"time_elapsed":189650,"internal_node_id":"0.0-12.12-1.12"},{"rt":30.07500001695007,"stimulus":"turn invisible and go in","key_press":70,"trial_type":"html-keyboard-response","trial_index":153,"time_elapsed":189681,"internal_node_id":"0.0-12.13-0.13","modal_type":"irrational","answered":"possible"},{"rt":null,"stimulus":"","key_press":null,"trial_type":"html-keyboard-response","trial_index":154,"time_elapsed":190181,"internal_node_id":"0.0-12.13-1.13"},{"rt":138.19000008516014,"stimulus":"\tuse a friend's guest pass","key_press":70,"trial_type":"html-keyboard-response","trial_index":155,"time_elapsed":190320,"internal_node_id":"0.0-12.14-0.14","modal_type":"irrational","answered":"possible"},{"rt":null,"stimulus":"","key_press":null,"trial_type":"html-keyboard-response","trial_index":156,"time_elapsed":190822,"internal_node_id":"0.0-12.14-1.14"},{"rt":69.03500005137175,"stimulus":"complain in a foreign language","key_press":70,"trial_type":"html-keyboard-response","trial_index":157,"time_elapsed":190892,"internal_node_id":"0.0-12.15-0.15","modal_type":"irrational","answered":"possible"},{"rt":null,"stimulus":"","key_press":null,"trial_type":"html-keyboard-response","trial_index":158,"time_elapsed":191393,"internal_node_id":"0.0-12.15-1.15"},{"rt":102.24499995820224,"stimulus":"wait to go to the gym tomorrow","key_press":70,"trial_type":"html-keyboard-response","trial_index":159,"time_elapsed":191496,"internal_node_id":"0.0-12.16-0.16","modal_type":"irrational","answered":"possible"},{"rt":null,"stimulus":"","key_press":null,"trial_type":"html-keyboard-response","trial_index":160,"time_elapsed":192000,"internal_node_id":"0.0-12.16-1.16"},{"rt":248.11000004410744,"stimulus":"decide to never exercise again","key_press":70,"trial_type":"html-keyboard-response","trial_index":161,"time_elapsed":192249,"internal_node_id":"0.0-12.17-0.17","modal_type":"irrational","answered":"possible"},{"rt":null,"stimulus":"","key_press":null,"trial_type":"html-keyboard-response","trial_index":162,"time_elapsed":192750,"internal_node_id":"0.0-12.17-1.17"},{"rt":102.04499994870275,"stimulus":"renew her gym membership","key_press":70,"trial_type":"html-keyboard-response","trial_index":163,"time_elapsed":192853,"internal_node_id":"0.0-12.18-0.18","modal_type":"irrational","answered":"possible"},{"rt":null,"stimulus":"","key_press":null,"trial_type":"html-keyboard-response","trial_index":164,"time_elapsed":193354,"internal_node_id":"0.0-12.18-1.18"},{"rt":105.13999999966472,"stimulus":"decide to never exercise again","key_press":70,"trial_type":"html-keyboard-response","trial_index":165,"time_elapsed":193460,"internal_node_id":"0.0-12.19-0.19","modal_type":"irrational","answered":"possible"},{"rt":null,"stimulus":"","key_press":null,"trial_type":"html-keyboard-response","trial_index":166,"time_elapsed":193962,"internal_node_id":"0.0-12.19-1.19"},{"rt":8.534999913536012,"stimulus":"eat lunch instead of working out","key_press":70,"trial_type":"html-keyboard-response","trial_index":167,"time_elapsed":193972,"internal_node_id":"0.0-12.20-0.20","modal_type":"irrational","answered":"possible"},{"rt":null,"stimulus":"","key_press":null,"trial_type":"html-keyboard-response","trial_index":168,"time_elapsed":194474,"internal_node_id":"0.0-12.20-1.20"},{"rt":268.33499991334975,"stimulus":"renew her membership by blinking","key_press":70,"trial_type":"html-keyboard-response","trial_index":169,"time_elapsed":194744,"internal_node_id":"0.0-12.21-0.21","modal_type":"irrational","answered":"possible"},{"rt":null,"stimulus":"","key_press":null,"trial_type":"html-keyboard-response","trial_index":170,"time_elapsed":195246,"internal_node_id":"0.0-12.21-1.21"},{"rt":83.40499992482364,"stimulus":"renew her gym membership","key_press":70,"trial_type":"html-keyboard-response","trial_index":171,"time_elapsed":195330,"internal_node_id":"0.0-12.22-0.22","modal_type":"irrational","answered":"possible"},{"rt":null,"stimulus":"","key_press":null,"trial_type":"html-keyboard-response","trial_index":172,"time_elapsed":195833,"internal_node_id":"0.0-12.22-1.22"},{"rt":31.669999938458204,"stimulus":"\ttry again in three minutes","key_press":70,"trial_type":"html-keyboard-response","trial_index":173,"time_elapsed":195866,"internal_node_id":"0.0-12.23-0.23","modal_type":"irrational","answered":"possible"},{"rt":null,"stimulus":"","key_press":null,"trial_type":"html-keyboard-response","trial_index":174,"time_elapsed":196370,"internal_node_id":"0.0-12.23-1.23"},{"rt":69.78499994147569,"stimulus":"wish all gyms to be free forever","key_press":70,"trial_type":"html-keyboard-response","trial_index":175,"time_elapsed":196440,"internal_node_id":"0.0-12.24-0.24","modal_type":"irrational","answered":"possible"},{"rt":null,"stimulus":"","key_press":null,"trial_type":"html-keyboard-response","trial_index":176,"time_elapsed":196944,"internal_node_id":"0.0-12.24-1.24"},{"rt":37.40500006824732,"stimulus":"complain in a foreign language","key_press":70,"trial_type":"html-keyboard-response","trial_index":177,"time_elapsed":196982,"internal_node_id":"0.0-12.25-0.25","modal_type":"irrational","answered":"possible"},{"rt":null,"stimulus":"","key_press":null,"trial_type":"html-keyboard-response","trial_index":178,"time_elapsed":197484,"internal_node_id":"0.0-12.25-1.25"},{"rt":188.79499996546656,"stimulus":"be allowed in just this once","key_press":70,"trial_type":"html-keyboard-response","trial_index":179,"time_elapsed":197673,"internal_node_id":"0.0-12.26-0.26","modal_type":"irrational","answered":"possible"},{"rt":null,"stimulus":"","key_press":null,"trial_type":"html-keyboard-response","trial_index":180,"time_elapsed":198175,"internal_node_id":"0.0-12.26-1.26"},{"rt":44.470000080764294,"stimulus":"pay for a one-day gym pass","key_press":70,"trial_type":"html-keyboard-response","trial_index":181,"time_elapsed":198221,"internal_node_id":"0.0-12.27-0.27","modal_type":"irrational","answered":"possible"},{"rt":null,"stimulus":"","key_press":null,"trial_type":"html-keyboard-response","trial_index":182,"time_elapsed":198722,"internal_node_id":"0.0-12.27-1.27"},{"rt":101.61999997217208,"stimulus":"turn invisible and go in","key_press":70,"trial_type":"html-keyboard-response","trial_index":183,"time_elapsed":198825,"internal_node_id":"0.0-12.28-0.28","modal_type":"irrational","answered":"possible"},{"rt":null,"stimulus":"","key_press":null,"trial_type":"html-keyboard-response","trial_index":184,"time_elapsed":199326,"internal_node_id":"0.0-12.28-1.28"},{"rt":65.90499996673316,"stimulus":"decide to lift weights at home","key_press":70,"trial_type":"html-keyboard-response","trial_index":185,"time_elapsed":199393,"internal_node_id":"0.0-12.29-0.29","modal_type":"irrational","answered":"possible"},{"rt":null,"stimulus":"","key_press":null,"trial_type":"html-keyboard-response","trial_index":186,"time_elapsed":199897,"internal_node_id":"0.0-12.29-1.29"},{"rt":64.26000001374632,"stimulus":"have her homework teleported","key_press":70,"trial_type":"html-keyboard-response","trial_index":187,"time_elapsed":199962,"internal_node_id":"0.0-12.30-0.30","modal_type":"irrational","answered":"possible"},{"rt":null,"stimulus":"","key_press":null,"trial_type":"html-keyboard-response","trial_index":188,"time_elapsed":200466,"internal_node_id":"0.0-12.30-1.30"},{"rt":240.17999996431172,"stimulus":"go for a run outside instead","key_press":70,"trial_type":"html-keyboard-response","trial_index":189,"time_elapsed":200707,"internal_node_id":"0.0-12.31-0.31","modal_type":"irrational","answered":"possible"},{"rt":null,"stimulus":"","key_press":null,"trial_type":"html-keyboard-response","trial_index":190,"time_elapsed":201211,"internal_node_id":"0.0-12.31-1.31"},{"rt":56.50000006426126,"stimulus":"wish all gyms to be free forever","key_press":70,"trial_type":"html-keyboard-response","trial_index":191,"time_elapsed":201268,"internal_node_id":"0.0-12.32-0.32","modal_type":"irrational","answered":"possible"},{"rt":null,"stimulus":"","key_press":null,"trial_type":"html-keyboard-response","trial_index":192,"time_elapsed":201770,"internal_node_id":"0.0-12.32-1.32"},{"view_history":"[{\"page_index\":0,\"viewing_time\":3717.6200000103563},{\"page_index\":1,\"viewing_time\":1004.8350000288337}]","rt":4722.8350000223145,"trial_type":"instructions","trial_index":193,"time_elapsed":206494,"internal_node_id":"0.0-13.0"},{"rt":null,"stimulus":"try random other medicines","key_press":null,"trial_type":"html-keyboard-response","trial_index":194,"time_elapsed":207250,"internal_node_id":"0.0-14.0-0.0","modal_type":"irrational","answered":"impossible"},{"rt":null,"stimulus":"","key_press":null,"trial_type":"html-keyboard-response","trial_index":195,"time_elapsed":207751,"internal_node_id":"0.0-14.0-1.0"},{"rt":null,"stimulus":"sell his own medication","key_press":null,"trial_type":"html-keyboard-response","trial_index":196,"time_elapsed":208507,"internal_node_id":"0.0-14.1-0.1","modal_type":"irrational","answered":"impossible"},{"rt":null,"stimulus":"","key_press":null,"trial_type":"html-keyboard-response","trial_index":197,"time_elapsed":209008,"internal_node_id":"0.0-14.1-1.1"},{"rt":null,"stimulus":"borrow the money from a bank","key_press":null,"trial_type":"html-keyboard-response","trial_index":198,"time_elapsed":209764,"internal_node_id":"0.0-14.2-0.2","modal_type":"irrational","answered":"impossible"},{"rt":null,"stimulus":"","key_press":null,"trial_type":"html-keyboard-response","trial_index":199,"time_elapsed":210266,"internal_node_id":"0.0-14.2-1.2"},{"rt":null,"stimulus":"be given the money by a turtle","key_press":null,"trial_type":"html-keyboard-response","trial_index":200,"time_elapsed":211022,"internal_node_id":"0.0-14.3-0.3","modal_type":"irrational","answered":"impossible"},{"rt":null,"stimulus":"","key_press":null,"trial_type":"html-keyboard-response","trial_index":201,"time_elapsed":211523,"internal_node_id":"0.0-14.3-1.3"},{"rt":null,"stimulus":"try random other medicines","key_press":null,"trial_type":"html-keyboard-response","trial_index":202,"time_elapsed":212275,"internal_node_id":"0.0-14.4-0.4","modal_type":"irrational","answered":"impossible"},{"rt":null,"stimulus":"","key_press":null,"trial_type":"html-keyboard-response","trial_index":203,"time_elapsed":212775,"internal_node_id":"0.0-14.4-1.4"},{"rt":null,"stimulus":"make the money time traveling","key_press":null,"trial_type":"html-keyboard-response","trial_index":204,"time_elapsed":213531,"internal_node_id":"0.0-14.5-0.5","modal_type":"irrational","answered":"impossible"},{"rt":null,"stimulus":"","key_press":null,"trial_type":"html-keyboard-response","trial_index":205,"time_elapsed":214035,"internal_node_id":"0.0-14.5-1.5"},{"rt":null,"stimulus":"go on strike until wages increase","key_press":null,"trial_type":"html-keyboard-response","trial_index":206,"time_elapsed":214786,"internal_node_id":"0.0-14.6-0.6","modal_type":"irrational","answered":"impossible"},{"rt":null,"stimulus":"","key_press":null,"trial_type":"html-keyboard-response","trial_index":207,"time_elapsed":215290,"internal_node_id":"0.0-14.6-1.6"},{"rt":null,"stimulus":"get the money by clapping","key_press":null,"trial_type":"html-keyboard-response","trial_index":208,"time_elapsed":216044,"internal_node_id":"0.0-14.7-0.7","modal_type":"irrational","answered":"impossible"},{"rt":null,"stimulus":"","key_press":null,"trial_type":"html-keyboard-response","trial_index":209,"time_elapsed":216547,"internal_node_id":"0.0-14.7-1.7"},{"rt":null,"stimulus":"wish all gyms to be free forever","key_press":null,"trial_type":"html-keyboard-response","trial_index":210,"time_elapsed":217305,"internal_node_id":"0.0-14.8-0.8","modal_type":"irrational","answered":"impossible"},{"rt":null,"stimulus":"","key_press":null,"trial_type":"html-keyboard-response","trial_index":211,"time_elapsed":217810,"internal_node_id":"0.0-14.8-1.8"},{"rt":null,"stimulus":"sell an extra car for the money","key_press":null,"trial_type":"html-keyboard-response","trial_index":212,"time_elapsed":218564,"internal_node_id":"0.0-14.9-0.9","modal_type":"irrational","answered":"impossible"},{"rt":null,"stimulus":"","key_press":null,"trial_type":"html-keyboard-response","trial_index":213,"time_elapsed":219067,"internal_node_id":"0.0-14.9-1.9"},{"rt":null,"stimulus":"grow the money on a tree","key_press":null,"trial_type":"html-keyboard-response","trial_index":214,"time_elapsed":219823,"internal_node_id":"0.0-14.10-0.10","modal_type":"irrational","answered":"impossible"},{"rt":null,"stimulus":"","key_press":null,"trial_type":"html-keyboard-response","trial_index":215,"time_elapsed":220330,"internal_node_id":"0.0-14.10-1.10"},{"rt":null,"stimulus":"grow the money on a tree","key_press":null,"trial_type":"html-keyboard-response","trial_index":216,"time_elapsed":221083,"internal_node_id":"0.0-14.11-0.11","modal_type":"irrational","answered":"impossible"},{"rt":null,"stimulus":"","key_press":null,"trial_type":"html-keyboard-response","trial_index":217,"time_elapsed":221587,"internal_node_id":"0.0-14.11-1.11"},{"rt":null,"stimulus":"enroll in federal healthcare","key_press":null,"trial_type":"html-keyboard-response","trial_index":218,"time_elapsed":222340,"internal_node_id":"0.0-14.12-0.12","modal_type":"irrational","answered":"impossible"},{"rt":null,"stimulus":"","key_press":null,"trial_type":"html-keyboard-response","trial_index":219,"time_elapsed":222843,"internal_node_id":"0.0-14.12-1.12"},{"rt":null,"stimulus":"be given the money by a friend","key_press":null,"trial_type":"html-keyboard-response","trial_index":220,"time_elapsed":223597,"internal_node_id":"0.0-14.13-0.13","modal_type":"irrational","answered":"impossible"},{"rt":null,"stimulus":"","key_press":null,"trial_type":"html-keyboard-response","trial_index":221,"time_elapsed":224107,"internal_node_id":"0.0-14.13-1.13"},{"rt":null,"stimulus":"make the money time traveling","key_press":null,"trial_type":"html-keyboard-response","trial_index":222,"time_elapsed":224860,"internal_node_id":"0.0-14.14-0.14","modal_type":"irrational","answered":"impossible"},{"rt":null,"stimulus":"","key_press":null,"trial_type":"html-keyboard-response","trial_index":223,"time_elapsed":225363,"internal_node_id":"0.0-14.14-1.14"},{"rt":null,"stimulus":"buy a different insurance plan","key_press":null,"trial_type":"html-keyboard-response","trial_index":224,"time_elapsed":226114,"internal_node_id":"0.0-14.15-0.15","modal_type":"irrational","answered":"impossible"},{"rt":null,"stimulus":"","key_press":null,"trial_type":"html-keyboard-response","trial_index":225,"time_elapsed":226619,"internal_node_id":"0.0-14.15-1.15"},{"rt":null,"stimulus":"sell all his clothes for money","key_press":null,"trial_type":"html-keyboard-response","trial_index":226,"time_elapsed":227373,"internal_node_id":"0.0-14.16-0.16","modal_type":"irrational","answered":"impossible"},{"rt":null,"stimulus":"","key_press":null,"trial_type":"html-keyboard-response","trial_index":227,"time_elapsed":227876,"internal_node_id":"0.0-14.16-1.16"},{"rt":null,"stimulus":"sell an extra car for the money","key_press":null,"trial_type":"html-keyboard-response","trial_index":228,"time_elapsed":228630,"internal_node_id":"0.0-14.17-0.17","modal_type":"irrational","answered":"impossible"},{"rt":null,"stimulus":"","key_press":null,"trial_type":"html-keyboard-response","trial_index":229,"time_elapsed":229136,"internal_node_id":"0.0-14.17-1.17"},{"rt":null,"stimulus":"be given the money by a friend","key_press":null,"trial_type":"html-keyboard-response","trial_index":230,"time_elapsed":229889,"internal_node_id":"0.0-14.18-0.18","modal_type":"irrational","answered":"impossible"},{"rt":null,"stimulus":"","key_press":null,"trial_type":"html-keyboard-response","trial_index":231,"time_elapsed":230392,"internal_node_id":"0.0-14.18-1.18"},{"rt":null,"stimulus":"be given the money by a turtle","key_press":null,"trial_type":"html-keyboard-response","trial_index":232,"time_elapsed":231147,"internal_node_id":"0.0-14.19-0.19","modal_type":"irrational","answered":"impossible"},{"rt":null,"stimulus":"","key_press":null,"trial_type":"html-keyboard-response","trial_index":233,"time_elapsed":231648,"internal_node_id":"0.0-14.19-1.19"},{"rt":null,"stimulus":"enroll in federal healthcare","key_press":null,"trial_type":"html-keyboard-response","trial_index":234,"time_elapsed":232402,"internal_node_id":"0.0-14.20-0.20","modal_type":"irrational","answered":"impossible"},{"rt":null,"stimulus":"","key_press":null,"trial_type":"html-keyboard-response","trial_index":235,"time_elapsed":232908,"internal_node_id":"0.0-14.20-1.20"},{"rt":null,"stimulus":"use a generic medication instead","key_press":null,"trial_type":"html-keyboard-response","trial_index":236,"time_elapsed":233663,"internal_node_id":"0.0-14.21-0.21","modal_type":"irrational","answered":"impossible"},{"rt":null,"stimulus":"","key_press":null,"trial_type":"html-keyboard-response","trial_index":237,"time_elapsed":234167,"internal_node_id":"0.0-14.21-1.21"},{"rt":null,"stimulus":"loan the money from his family","key_press":null,"trial_type":"html-keyboard-response","trial_index":238,"time_elapsed":234922,"internal_node_id":"0.0-14.22-0.22","modal_type":"irrational","answered":"impossible"},{"rt":null,"stimulus":"","key_press":null,"trial_type":"html-keyboard-response","trial_index":239,"time_elapsed":235427,"internal_node_id":"0.0-14.22-1.22"},{"rt":null,"stimulus":"get the money by clapping","key_press":null,"trial_type":"html-keyboard-response","trial_index":240,"time_elapsed":236185,"internal_node_id":"0.0-14.23-0.23","modal_type":"irrational","answered":"impossible"},{"rt":null,"stimulus":"","key_press":null,"trial_type":"html-keyboard-response","trial_index":241,"time_elapsed":236691,"internal_node_id":"0.0-14.23-1.23"},{"rt":null,"stimulus":"go on strike until wages increase","key_press":null,"trial_type":"html-keyboard-response","trial_index":242,"time_elapsed":237443,"internal_node_id":"0.0-14.24-0.24","modal_type":"irrational","answered":"impossible"},{"rt":null,"stimulus":"","key_press":null,"trial_type":"html-keyboard-response","trial_index":243,"time_elapsed":237947,"internal_node_id":"0.0-14.24-1.24"},{"rt":null,"stimulus":"use a generic medication instead","key_press":null,"trial_type":"html-keyboard-response","trial_index":244,"time_elapsed":238700,"internal_node_id":"0.0-14.25-0.25","modal_type":"irrational","answered":"impossible"},{"rt":null,"stimulus":"","key_press":null,"trial_type":"html-keyboard-response","trial_index":245,"time_elapsed":239202,"internal_node_id":"0.0-14.25-1.25"},{"rt":null,"stimulus":"borrow the money from a bank","key_press":null,"trial_type":"html-keyboard-response","trial_index":246,"time_elapsed":239958,"internal_node_id":"0.0-14.26-0.26","modal_type":"irrational","answered":"impossible"},{"rt":null,"stimulus":"","key_press":null,"trial_type":"html-keyboard-response","trial_index":247,"time_elapsed":240461,"internal_node_id":"0.0-14.26-1.26"},{"rt":null,"stimulus":"sell all his clothes for money","key_press":null,"trial_type":"html-keyboard-response","trial_index":248,"time_elapsed":241212,"internal_node_id":"0.0-14.27-0.27","modal_type":"irrational","answered":"impossible"},{"rt":null,"stimulus":"","key_press":null,"trial_type":"html-keyboard-response","trial_index":249,"time_elapsed":241713,"internal_node_id":"0.0-14.27-1.27"},{"rt":null,"stimulus":"loan the money from his family","key_press":null,"trial_type":"html-keyboard-response","trial_index":250,"time_elapsed":242468,"internal_node_id":"0.0-14.28-0.28","modal_type":"irrational","answered":"impossible"},{"rt":null,"stimulus":"","key_press":null,"trial_type":"html-keyboard-response","trial_index":251,"time_elapsed":242973,"internal_node_id":"0.0-14.28-1.28"},{"rt":null,"stimulus":"sell his own medication","key_press":null,"trial_type":"html-keyboard-response","trial_index":252,"time_elapsed":243726,"internal_node_id":"0.0-14.29-0.29","modal_type":"irrational","answered":"impossible"},{"rt":null,"stimulus":"","key_press":null,"trial_type":"html-keyboard-response","trial_index":253,"time_elapsed":244228,"internal_node_id":"0.0-14.29-1.29"},{"rt":null,"stimulus":"sells some of his stocks or bonds","key_press":null,"trial_type":"html-keyboard-response","trial_index":254,"time_elapsed":244984,"internal_node_id":"0.0-14.30-0.30","modal_type":"irrational","answered":"impossible"},{"rt":null,"stimulus":"","key_press":null,"trial_type":"html-keyboard-response","trial_index":255,"time_elapsed":245488,"internal_node_id":"0.0-14.30-1.30"},{"rt":null,"stimulus":"sells some of his stocks or bonds","key_press":null,"trial_type":"html-keyboard-response","trial_index":256,"time_elapsed":246242,"internal_node_id":"0.0-14.31-0.31","modal_type":"irrational","answered":"impossible"},{"rt":null,"stimulus":"","key_press":null,"trial_type":"html-keyboard-response","trial_index":257,"time_elapsed":246747,"internal_node_id":"0.0-14.31-1.31"},{"rt":null,"stimulus":"buy a different insurance plan","key_press":null,"trial_type":"html-keyboard-response","trial_index":258,"time_elapsed":247500,"internal_node_id":"0.0-14.32-0.32","modal_type":"irrational","answered":"impossible"},{"rt":null,"stimulus":"","key_press":null,"trial_type":"html-keyboard-response","trial_index":259,"time_elapsed":248004,"internal_node_id":"0.0-14.32-1.32"},{"view_history":"[{\"page_index\":0,\"viewing_time\":2183.3849999820814},{\"page_index\":1,\"viewing_time\":1625.9550000540912}]","rt":3809.624999994412,"trial_type":"instructions","trial_index":260,"time_elapsed":251814,"internal_node_id":"0.0-15.0"},{"rt":323.9350001094863,"stimulus":"alert rescuers with emergency flares","key_press":74,"trial_type":"html-keyboard-response","trial_index":261,"time_elapsed":252139,"internal_node_id":"0.0-16.0-0.0","modal_type":"irrational","answered":"impossible"},{"rt":null,"stimulus":"","key_press":null,"trial_type":"html-keyboard-response","trial_index":262,"time_elapsed":252640,"internal_node_id":"0.0-16.0-1.0"},{"rt":178.03000006824732,"stimulus":"each venture off independently","key_press":74,"trial_type":"html-keyboard-response","trial_index":263,"time_elapsed":252819,"internal_node_id":"0.0-16.1-0.1","modal_type":"irrational","answered":"impossible"},{"rt":null,"stimulus":"","key_press":null,"trial_type":"html-keyboard-response","trial_index":264,"time_elapsed":253323,"internal_node_id":"0.0-16.1-1.1"},{"rt":63.624999951571226,"stimulus":"grind up rocks for food and water","key_press":74,"trial_type":"html-keyboard-response","trial_index":265,"time_elapsed":253388,"internal_node_id":"0.0-16.2-0.2","modal_type":"irrational","answered":"impossible"},{"rt":null,"stimulus":"","key_press":null,"trial_type":"html-keyboard-response","trial_index":266,"time_elapsed":253891,"internal_node_id":"0.0-16.2-1.2"},{"rt":67.74500000756234,"stimulus":"build a large fire to alert rescuers","key_press":74,"trial_type":"html-keyboard-response","trial_index":267,"time_elapsed":253959,"internal_node_id":"0.0-16.3-0.3","modal_type":"irrational","answered":"impossible"},{"rt":null,"stimulus":"","key_press":null,"trial_type":"html-keyboard-response","trial_index":268,"time_elapsed":254460,"internal_node_id":"0.0-16.3-1.3"},{"rt":117.71499994210899,"stimulus":"go hunting for water buffalo","key_press":74,"trial_type":"html-keyboard-response","trial_index":269,"time_elapsed":254579,"internal_node_id":"0.0-16.4-0.4","modal_type":"irrational","answered":"impossible"},{"rt":null,"stimulus":"","key_press":null,"trial_type":"html-keyboard-response","trial_index":270,"time_elapsed":255085,"internal_node_id":"0.0-16.4-1.4"},{"rt":141.01500005926937,"stimulus":"find a river for fresh water and fish","key_press":74,"trial_type":"html-keyboard-response","trial_index":271,"time_elapsed":255227,"internal_node_id":"0.0-16.5-0.5","modal_type":"irrational","answered":"impossible"},{"rt":null,"stimulus":"","key_press":null,"trial_type":"html-keyboard-response","trial_index":272,"time_elapsed":255731,"internal_node_id":"0.0-16.5-1.5"},{"rt":138.60499998554587,"stimulus":"be found by the rescue crew","key_press":74,"trial_type":"html-keyboard-response","trial_index":273,"time_elapsed":255871,"internal_node_id":"0.0-16.6-0.6","modal_type":"irrational","answered":"impossible"},{"rt":null,"stimulus":"","key_press":null,"trial_type":"html-keyboard-response","trial_index":274,"time_elapsed":256373,"internal_node_id":"0.0-16.6-1.6"},{"rt":117.04499996267259,"stimulus":"make new jackets from pine trees","key_press":74,"trial_type":"html-keyboard-response","trial_index":275,"time_elapsed":256491,"internal_node_id":"0.0-16.7-0.7","modal_type":"irrational","answered":"impossible"},{"rt":null,"stimulus":"","key_press":null,"trial_type":"html-keyboard-response","trial_index":276,"time_elapsed":256991,"internal_node_id":"0.0-16.7-1.7"},{"rt":190.97000011242926,"stimulus":"stay put and wait for help","key_press":74,"trial_type":"html-keyboard-response","trial_index":277,"time_elapsed":257183,"internal_node_id":"0.0-16.8-0.8","modal_type":"irrational","answered":"impossible"},{"rt":null,"stimulus":"","key_press":null,"trial_type":"html-keyboard-response","trial_index":278,"time_elapsed":257685,"internal_node_id":"0.0-16.8-1.8"},{"rt":109.30500004906207,"stimulus":"alert airplanes overhead by yelling","key_press":74,"trial_type":"html-keyboard-response","trial_index":279,"time_elapsed":257795,"internal_node_id":"0.0-16.9-0.9","modal_type":"irrational","answered":"impossible"},{"rt":null,"stimulus":"","key_press":null,"trial_type":"html-keyboard-response","trial_index":280,"time_elapsed":258301,"internal_node_id":"0.0-16.9-1.9"},{"rt":51.164999953471124,"stimulus":"eat random berries and leaves","key_press":74,"trial_type":"html-keyboard-response","trial_index":281,"time_elapsed":258353,"internal_node_id":"0.0-16.10-0.10","modal_type":"irrational","answered":"impossible"},{"rt":null,"stimulus":"","key_press":null,"trial_type":"html-keyboard-response","trial_index":282,"time_elapsed":258858,"internal_node_id":"0.0-16.10-1.10"},{"rt":124.04000002425164,"stimulus":"create a shelter to stay warm","key_press":74,"trial_type":"html-keyboard-response","trial_index":283,"time_elapsed":258983,"internal_node_id":"0.0-16.11-0.11","modal_type":"irrational","answered":"impossible"},{"rt":null,"stimulus":"","key_press":null,"trial_type":"html-keyboard-response","trial_index":284,"time_elapsed":259484,"internal_node_id":"0.0-16.11-1.11"},{"rt":148.84999999776483,"stimulus":"buy a different insurance plan","key_press":74,"trial_type":"html-keyboard-response","trial_index":285,"time_elapsed":259634,"internal_node_id":"0.0-16.12-0.12","modal_type":"irrational","answered":"impossible"},{"rt":null,"stimulus":"","key_press":null,"trial_type":"html-keyboard-response","trial_index":286,"time_elapsed":260135,"internal_node_id":"0.0-16.12-1.12"},{"rt":109.45999994874,"stimulus":"find a river for fresh water and fish","key_press":74,"trial_type":"html-keyboard-response","trial_index":287,"time_elapsed":260245,"internal_node_id":"0.0-16.13-0.13","modal_type":"irrational","answered":"impossible"},{"rt":null,"stimulus":"","key_press":null,"trial_type":"html-keyboard-response","trial_index":288,"time_elapsed":260749,"internal_node_id":"0.0-16.13-1.13"},{"rt":186.86999997589737,"stimulus":"eat random berries and leaves","key_press":74,"trial_type":"html-keyboard-response","trial_index":289,"time_elapsed":260938,"internal_node_id":"0.0-16.14-0.14","modal_type":"irrational","answered":"impossible"},{"rt":null,"stimulus":"","key_press":null,"trial_type":"html-keyboard-response","trial_index":290,"time_elapsed":261440,"internal_node_id":"0.0-16.14-1.14"},{"rt":78.19000002928078,"stimulus":"use his mind to keep everyone warm","key_press":74,"trial_type":"html-keyboard-response","trial_index":291,"time_elapsed":261519,"internal_node_id":"0.0-16.15-0.15","modal_type":"irrational","answered":"impossible"},{"rt":null,"stimulus":"","key_press":null,"trial_type":"html-keyboard-response","trial_index":292,"time_elapsed":262023,"internal_node_id":"0.0-16.15-1.15"},{"rt":75.81499998923391,"stimulus":"eat all their food immediately","key_press":74,"trial_type":"html-keyboard-response","trial_index":293,"time_elapsed":262100,"internal_node_id":"0.0-16.16-0.16","modal_type":"irrational","answered":"impossible"},{"rt":null,"stimulus":"","key_press":null,"trial_type":"html-keyboard-response","trial_index":294,"time_elapsed":262603,"internal_node_id":"0.0-16.16-1.16"},{"rt":231.13999993074685,"stimulus":"get more food by hunting and fishing","key_press":74,"trial_type":"html-keyboard-response","trial_index":295,"time_elapsed":262835,"internal_node_id":"0.0-16.17-0.17","modal_type":"irrational","answered":"impossible"},{"rt":null,"stimulus":"","key_press":null,"trial_type":"html-keyboard-response","trial_index":296,"time_elapsed":263335,"internal_node_id":"0.0-16.17-1.17"},{"rt":158.44500006642193,"stimulus":"follow a river out of the wilderness","key_press":74,"trial_type":"html-keyboard-response","trial_index":297,"time_elapsed":263494,"internal_node_id":"0.0-16.18-0.18","modal_type":"irrational","answered":"impossible"},{"rt":null,"stimulus":"","key_press":null,"trial_type":"html-keyboard-response","trial_index":298,"time_elapsed":263997,"internal_node_id":"0.0-16.18-1.18"},{"rt":213.01000006496906,"stimulus":"create a shelter to stay warm","key_press":74,"trial_type":"html-keyboard-response","trial_index":299,"time_elapsed":264211,"internal_node_id":"0.0-16.19-0.19","modal_type":"irrational","answered":"impossible"},{"rt":null,"stimulus":"","key_press":null,"trial_type":"html-keyboard-response","trial_index":300,"time_elapsed":264713,"internal_node_id":"0.0-16.19-1.19"},{"rt":82.05999992787838,"stimulus":"stay put and wait for help","key_press":74,"trial_type":"html-keyboard-response","trial_index":301,"time_elapsed":264796,"internal_node_id":"0.0-16.20-0.20","modal_type":"irrational","answered":"impossible"},{"rt":null,"stimulus":"","key_press":null,"trial_type":"html-keyboard-response","trial_index":302,"time_elapsed":265301,"internal_node_id":"0.0-16.20-1.20"},{"rt":128.24500002898276,"stimulus":"alert rescuers with emergency flares","key_press":74,"trial_type":"html-keyboard-response","trial_index":303,"time_elapsed":265430,"internal_node_id":"0.0-16.21-0.21","modal_type":"irrational","answered":"impossible"},{"rt":null,"stimulus":"","key_press":null,"trial_type":"html-keyboard-response","trial_index":304,"time_elapsed":265932,"internal_node_id":"0.0-16.21-1.21"},{"rt":129.73500008229166,"stimulus":"grind up rocks for food and water","key_press":74,"trial_type":"html-keyboard-response","trial_index":305,"time_elapsed":266062,"internal_node_id":"0.0-16.22-0.22","modal_type":"irrational","answered":"impossible"},{"rt":null,"stimulus":"","key_press":null,"trial_type":"html-keyboard-response","trial_index":306,"time_elapsed":266566,"internal_node_id":"0.0-16.22-1.22"},{"rt":56.609999970532954,"stimulus":"build a large fire to alert rescuers","key_press":74,"trial_type":"html-keyboard-response","trial_index":307,"time_elapsed":266623,"internal_node_id":"0.0-16.23-0.23","modal_type":"irrational","answered":"impossible"},{"rt":null,"stimulus":"","key_press":null,"trial_type":"html-keyboard-response","trial_index":308,"time_elapsed":267124,"internal_node_id":"0.0-16.23-1.23"},{"rt":95.16500006429851,"stimulus":"eat all their food immediately","key_press":74,"trial_type":"html-keyboard-response","trial_index":309,"time_elapsed":267220,"internal_node_id":"0.0-16.24-0.24","modal_type":"irrational","answered":"impossible"},{"rt":null,"stimulus":"","key_press":null,"trial_type":"html-keyboard-response","trial_index":310,"time_elapsed":267724,"internal_node_id":"0.0-16.24-1.24"},{"rt":121.43499997910112,"stimulus":"use his mind to keep everyone warm","key_press":74,"trial_type":"html-keyboard-response","trial_index":311,"time_elapsed":267848,"internal_node_id":"0.0-16.25-0.25","modal_type":"irrational","answered":"impossible"},{"rt":null,"stimulus":"","key_press":null,"trial_type":"html-keyboard-response","trial_index":312,"time_elapsed":268351,"internal_node_id":"0.0-16.25-1.25"},{"rt":182.05499998293817,"stimulus":"be found by the rescue crew","key_press":74,"trial_type":"html-keyboard-response","trial_index":313,"time_elapsed":268533,"internal_node_id":"0.0-16.26-0.26","modal_type":"irrational","answered":"impossible"},{"rt":null,"stimulus":"","key_press":null,"trial_type":"html-keyboard-response","trial_index":314,"time_elapsed":269036,"internal_node_id":"0.0-16.26-1.26"},{"rt":10.480000055395067,"stimulus":"alert airplanes overhead by yelling","key_press":74,"trial_type":"html-keyboard-response","trial_index":315,"time_elapsed":269048,"internal_node_id":"0.0-16.27-0.27","modal_type":"irrational","answered":"impossible"},{"rt":null,"stimulus":"","key_press":null,"trial_type":"html-keyboard-response","trial_index":316,"time_elapsed":269548,"internal_node_id":"0.0-16.27-1.27"},{"rt":37.795000011101365,"stimulus":"each venture off independently","key_press":74,"trial_type":"html-keyboard-response","trial_index":317,"time_elapsed":269587,"internal_node_id":"0.0-16.28-0.28","modal_type":"irrational","answered":"impossible"},{"rt":null,"stimulus":"","key_press":null,"trial_type":"html-keyboard-response","trial_index":318,"time_elapsed":270091,"internal_node_id":"0.0-16.28-1.28"},{"rt":62.27500003296882,"stimulus":"make new jackets from pine trees","key_press":74,"trial_type":"html-keyboard-response","trial_index":319,"time_elapsed":270154,"internal_node_id":"0.0-16.29-0.29","modal_type":"irrational","answered":"impossible"},{"rt":null,"stimulus":"","key_press":null,"trial_type":"html-keyboard-response","trial_index":320,"time_elapsed":270657,"internal_node_id":"0.0-16.29-1.29"},{"rt":94.58500007167459,"stimulus":"follow a river out of the wilderness","key_press":74,"trial_type":"html-keyboard-response","trial_index":321,"time_elapsed":270752,"internal_node_id":"0.0-16.30-0.30","modal_type":"irrational","answered":"impossible"},{"rt":null,"stimulus":"","key_press":null,"trial_type":"html-keyboard-response","trial_index":322,"time_elapsed":271253,"internal_node_id":"0.0-16.30-1.30"},{"rt":158.15500007010996,"stimulus":"go hunting for water buffalo","key_press":74,"trial_type":"html-keyboard-response","trial_index":323,"time_elapsed":271412,"internal_node_id":"0.0-16.31-0.31","modal_type":"irrational","answered":"impossible"},{"rt":null,"stimulus":"","key_press":null,"trial_type":"html-keyboard-response","trial_index":324,"time_elapsed":271917,"internal_node_id":"0.0-16.31-1.31"},{"rt":191.89999997615814,"stimulus":"get more food by hunting and fishing","key_press":74,"trial_type":"html-keyboard-response","trial_index":325,"time_elapsed":272109,"internal_node_id":"0.0-16.32-0.32","modal_type":"irrational","answered":"impossible"},{"rt":null,"stimulus":"","key_press":null,"trial_type":"html-keyboard-response","trial_index":326,"time_elapsed":272612,"internal_node_id":"0.0-16.32-1.32"},{"view_history":"[{\"page_index\":0,\"viewing_time\":1667.589999968186},{\"page_index\":1,\"viewing_time\":1119.124999968335}]","rt":2787.0549999643117,"trial_type":"instructions","trial_index":327,"time_elapsed":275400,"internal_node_id":"0.0-17.0"},{"rt":178.82999998982996,"stimulus":"pay 1000 dollars for a ride","key_press":70,"trial_type":"html-keyboard-response","trial_index":328,"time_elapsed":275580,"internal_node_id":"0.0-18.0-0.0","modal_type":"irrational","answered":"possible"},{"rt":null,"stimulus":"","key_press":null,"trial_type":"html-keyboard-response","trial_index":329,"time_elapsed":276081,"internal_node_id":"0.0-18.0-1.0"},{"rt":187.9699999699369,"stimulus":"levitate and fly to the airport","key_press":70,"trial_type":"html-keyboard-response","trial_index":330,"time_elapsed":276270,"internal_node_id":"0.0-18.1-0.1","modal_type":"irrational","answered":"possible"},{"rt":null,"stimulus":"","key_press":null,"trial_type":"html-keyboard-response","trial_index":331,"time_elapsed":276774,"internal_node_id":"0.0-18.1-1.1"},{"rt":307.0649999426678,"stimulus":"get more food by hunting and fishing","key_press":70,"trial_type":"html-keyboard-response","trial_index":332,"time_elapsed":277082,"internal_node_id":"0.0-18.2-0.2","modal_type":"irrational","answered":"possible"},{"rt":null,"stimulus":"","key_press":null,"trial_type":"html-keyboard-response","trial_index":333,"time_elapsed":277585,"internal_node_id":"0.0-18.2-1.2"},{"rt":49.739999929443,"stimulus":"try to run there in time","key_press":70,"trial_type":"html-keyboard-response","trial_index":334,"time_elapsed":277635,"internal_node_id":"0.0-18.3-0.3","modal_type":"irrational","answered":"possible"},{"rt":null,"stimulus":"","key_press":null,"trial_type":"html-keyboard-response","trial_index":335,"time_elapsed":278137,"internal_node_id":"0.0-18.3-1.3"},{"rt":4.259999957866967,"stimulus":"ask a relative to pick him up","key_press":70,"trial_type":"html-keyboard-response","trial_index":336,"time_elapsed":278142,"internal_node_id":"0.0-18.4-0.4","modal_type":"irrational","answered":"possible"},{"rt":null,"stimulus":"","key_press":null,"trial_type":"html-keyboard-response","trial_index":337,"time_elapsed":278644,"internal_node_id":"0.0-18.4-1.4"},{"rt":108.40999998617917,"stimulus":"call a friend for a ride","key_press":70,"trial_type":"html-keyboard-response","trial_index":338,"time_elapsed":278753,"internal_node_id":"0.0-18.5-0.5","modal_type":"irrational","answered":"possible"},{"rt":null,"stimulus":"","key_press":null,"trial_type":"html-keyboard-response","trial_index":339,"time_elapsed":279253,"internal_node_id":"0.0-18.5-1.5"},{"rt":49.22499996609986,"stimulus":"ride a cat to the airport","key_press":70,"trial_type":"html-keyboard-response","trial_index":340,"time_elapsed":279303,"internal_node_id":"0.0-18.6-0.6","modal_type":"irrational","answered":"possible"},{"rt":null,"stimulus":"","key_press":null,"trial_type":"html-keyboard-response","trial_index":341,"time_elapsed":279805,"internal_node_id":"0.0-18.6-1.6"},{"rt":33.16000010818243,"stimulus":"hail a taxi at the intersection","key_press":70,"trial_type":"html-keyboard-response","trial_index":342,"time_elapsed":279839,"internal_node_id":"0.0-18.7-0.7","modal_type":"irrational","answered":"possible"},{"rt":null,"stimulus":"","key_press":null,"trial_type":"html-keyboard-response","trial_index":343,"time_elapsed":280341,"internal_node_id":"0.0-18.7-1.7"},{"rt":250.79999992158264,"stimulus":"pay 1000 dollars for a ride","key_press":70,"trial_type":"html-keyboard-response","trial_index":344,"time_elapsed":280592,"internal_node_id":"0.0-18.8-0.8","modal_type":"irrational","answered":"possible"},{"rt":null,"stimulus":"","key_press":null,"trial_type":"html-keyboard-response","trial_index":345,"time_elapsed":281097,"internal_node_id":"0.0-18.8-1.8"},{"rt":78.74500006437302,"stimulus":"hail a taxi at the intersection","key_press":70,"trial_type":"html-keyboard-response","trial_index":346,"time_elapsed":281176,"internal_node_id":"0.0-18.9-0.9","modal_type":"irrational","answered":"possible"},{"rt":null,"stimulus":"","key_press":null,"trial_type":"html-keyboard-response","trial_index":347,"time_elapsed":281681,"internal_node_id":"0.0-18.9-1.9"},{"rt":87.38000004086643,"stimulus":"ask the gas station clerk for help","key_press":70,"trial_type":"html-keyboard-response","trial_index":348,"time_elapsed":281769,"internal_node_id":"0.0-18.10-0.10","modal_type":"irrational","answered":"possible"},{"rt":null,"stimulus":"","key_press":null,"trial_type":"html-keyboard-response","trial_index":349,"time_elapsed":282273,"internal_node_id":"0.0-18.10-1.10"},{"rt":40.009999996982515,"stimulus":"get a new car by thinking","key_press":70,"trial_type":"html-keyboard-response","trial_index":350,"time_elapsed":282314,"internal_node_id":"0.0-18.11-0.11","modal_type":"irrational","answered":"possible"},{"rt":null,"stimulus":"","key_press":null,"trial_type":"html-keyboard-response","trial_index":351,"time_elapsed":282817,"internal_node_id":"0.0-18.11-1.11"},{"rt":12.385000009089708,"stimulus":"take public transportation","key_press":70,"trial_type":"html-keyboard-response","trial_index":352,"time_elapsed":282831,"internal_node_id":"0.0-18.12-0.12","modal_type":"irrational","answered":"possible"},{"rt":null,"stimulus":"","key_press":null,"trial_type":"html-keyboard-response","trial_index":353,"time_elapsed":283332,"internal_node_id":"0.0-18.12-1.12"},{"rt":687.9249999765307,"stimulus":"take public transportation","key_press":70,"trial_type":"html-keyboard-response","trial_index":354,"time_elapsed":284020,"internal_node_id":"0.0-18.13-0.13","modal_type":"irrational","answered":"possible"},{"rt":null,"stimulus":"","key_press":null,"trial_type":"html-keyboard-response","trial_index":355,"time_elapsed":284524,"internal_node_id":"0.0-18.13-1.13"},{"rt":150.87500005029142,"stimulus":"reschedule for a later flight","key_press":70,"trial_type":"html-keyboard-response","trial_index":356,"time_elapsed":284676,"internal_node_id":"0.0-18.14-0.14","modal_type":"irrational","answered":"possible"},{"rt":null,"stimulus":"","key_press":null,"trial_type":"html-keyboard-response","trial_index":357,"time_elapsed":285180,"internal_node_id":"0.0-18.14-1.14"},{"rt":90.10999999009073,"stimulus":"teleport himself to the airport","key_press":70,"trial_type":"html-keyboard-response","trial_index":358,"time_elapsed":285270,"internal_node_id":"0.0-18.15-0.15","modal_type":"irrational","answered":"possible"},{"rt":null,"stimulus":"","key_press":null,"trial_type":"html-keyboard-response","trial_index":359,"time_elapsed":285774,"internal_node_id":"0.0-18.15-1.15"},{"rt":42.23000002093613,"stimulus":"teleport himself to the airport","key_press":70,"trial_type":"html-keyboard-response","trial_index":360,"time_elapsed":285817,"internal_node_id":"0.0-18.16-0.16","modal_type":"irrational","answered":"possible"},{"rt":null,"stimulus":"","key_press":null,"trial_type":"html-keyboard-response","trial_index":361,"time_elapsed":286318,"internal_node_id":"0.0-18.16-1.16"},{"rt":224.84499996062368,"stimulus":"take the public bus there","key_press":70,"trial_type":"html-keyboard-response","trial_index":362,"time_elapsed":286543,"internal_node_id":"0.0-18.17-0.17","modal_type":"irrational","answered":"possible"},{"rt":null,"stimulus":"","key_press":null,"trial_type":"html-keyboard-response","trial_index":363,"time_elapsed":287046,"internal_node_id":"0.0-18.17-1.17"},{"rt":250.5349999992177,"stimulus":"sell car for ride to airport","key_press":70,"trial_type":"html-keyboard-response","trial_index":364,"time_elapsed":287298,"internal_node_id":"0.0-18.18-0.18","modal_type":"irrational","answered":"possible"},{"rt":null,"stimulus":"","key_press":null,"trial_type":"html-keyboard-response","trial_index":365,"time_elapsed":287802,"internal_node_id":"0.0-18.18-1.18"},{"rt":291.87000007368624,"stimulus":"sell car for ride to airport","key_press":70,"trial_type":"html-keyboard-response","trial_index":366,"time_elapsed":288095,"internal_node_id":"0.0-18.19-0.19","modal_type":"irrational","answered":"possible"},{"rt":null,"stimulus":"","key_press":null,"trial_type":"html-keyboard-response","trial_index":367,"time_elapsed":288597,"internal_node_id":"0.0-18.19-1.19"},{"rt":30.97999992314726,"stimulus":"book a flight for next year","key_press":70,"trial_type":"html-keyboard-response","trial_index":368,"time_elapsed":288629,"internal_node_id":"0.0-18.20-0.20","modal_type":"irrational","answered":"possible"},{"rt":null,"stimulus":"","key_press":null,"trial_type":"html-keyboard-response","trial_index":369,"time_elapsed":289130,"internal_node_id":"0.0-18.20-1.20"},{"rt":54.739999934099615,"stimulus":"try to run there in time","key_press":70,"trial_type":"html-keyboard-response","trial_index":370,"time_elapsed":289185,"internal_node_id":"0.0-18.21-0.21","modal_type":"irrational","answered":"possible"},{"rt":null,"stimulus":"","key_press":null,"trial_type":"html-keyboard-response","trial_index":371,"time_elapsed":289687,"internal_node_id":"0.0-18.21-1.21"},{"rt":230.1450000377372,"stimulus":"call a friend for a ride","key_press":70,"trial_type":"html-keyboard-response","trial_index":372,"time_elapsed":289918,"internal_node_id":"0.0-18.22-0.22","modal_type":"irrational","answered":"possible"},{"rt":null,"stimulus":"","key_press":null,"trial_type":"html-keyboard-response","trial_index":373,"time_elapsed":290420,"internal_node_id":"0.0-18.22-1.22"},{"rt":329.68500000424683,"stimulus":"ride a cat to the airport","key_press":70,"trial_type":"html-keyboard-response","trial_index":374,"time_elapsed":290751,"internal_node_id":"0.0-18.23-0.23","modal_type":"irrational","answered":"possible"},{"rt":null,"stimulus":"","key_press":null,"trial_type":"html-keyboard-response","trial_index":375,"time_elapsed":291254,"internal_node_id":"0.0-18.23-1.23"},{"rt":173.04999998304993,"stimulus":"request aiport shuttle pickup","key_press":70,"trial_type":"html-keyboard-response","trial_index":376,"time_elapsed":291428,"internal_node_id":"0.0-18.24-0.24","modal_type":"irrational","answered":"possible"},{"rt":null,"stimulus":"","key_press":null,"trial_type":"html-keyboard-response","trial_index":377,"time_elapsed":291932,"internal_node_id":"0.0-18.24-1.24"},{"rt":3.815000061877072,"stimulus":"reschedule for a later flight","key_press":70,"trial_type":"html-keyboard-response","trial_index":378,"time_elapsed":291937,"internal_node_id":"0.0-18.25-0.25","modal_type":"irrational","answered":"possible"},{"rt":null,"stimulus":"","key_press":null,"trial_type":"html-keyboard-response","trial_index":379,"time_elapsed":292438,"internal_node_id":"0.0-18.25-1.25"},{"rt":243.52000001817942,"stimulus":"book a flight for next year","key_press":70,"trial_type":"html-keyboard-response","trial_index":380,"time_elapsed":292682,"internal_node_id":"0.0-18.26-0.26","modal_type":"irrational","answered":"possible"},{"rt":null,"stimulus":"","key_press":null,"trial_type":"html-keyboard-response","trial_index":381,"time_elapsed":293187,"internal_node_id":"0.0-18.26-1.26"},{"rt":225.330000044778,"stimulus":"ask the gas station clerk for help","key_press":70,"trial_type":"html-keyboard-response","trial_index":382,"time_elapsed":293414,"internal_node_id":"0.0-18.27-0.27","modal_type":"irrational","answered":"possible"},{"rt":null,"stimulus":"","key_press":null,"trial_type":"html-keyboard-response","trial_index":383,"time_elapsed":293917,"internal_node_id":"0.0-18.27-1.27"},{"rt":189.72999998368323,"stimulus":"request aiport shuttle pickup","key_press":70,"trial_type":"html-keyboard-response","trial_index":384,"time_elapsed":294108,"internal_node_id":"0.0-18.28-0.28","modal_type":"irrational","answered":"possible"},{"rt":null,"stimulus":"","key_press":null,"trial_type":"html-keyboard-response","trial_index":385,"time_elapsed":294612,"internal_node_id":"0.0-18.28-1.28"},{"rt":194.25499998033047,"stimulus":"ask a relative to pick him up","key_press":70,"trial_type":"html-keyboard-response","trial_index":386,"time_elapsed":294807,"internal_node_id":"0.0-18.29-0.29","modal_type":"irrational","answered":"possible"},{"rt":null,"stimulus":"","key_press":null,"trial_type":"html-keyboard-response","trial_index":387,"time_elapsed":295308,"internal_node_id":"0.0-18.29-1.29"},{"rt":200.64000005368143,"stimulus":"take the public bus there","key_press":70,"trial_type":"html-keyboard-response","trial_index":388,"time_elapsed":295510,"internal_node_id":"0.0-18.30-0.30","modal_type":"irrational","answered":"possible"},{"rt":null,"stimulus":"","key_press":null,"trial_type":"html-keyboard-response","trial_index":389,"time_elapsed":296014,"internal_node_id":"0.0-18.30-1.30"},{"rt":147.7250000461936,"stimulus":"get a new car by thinking","key_press":70,"trial_type":"html-keyboard-response","trial_index":390,"time_elapsed":296163,"internal_node_id":"0.0-18.31-0.31","modal_type":"irrational","answered":"possible"},{"rt":null,"stimulus":"","key_press":null,"trial_type":"html-keyboard-response","trial_index":391,"time_elapsed":296667,"internal_node_id":"0.0-18.31-1.31"},{"rt":242.8400000790134,"stimulus":"levitate and fly to the airport","key_press":70,"trial_type":"html-keyboard-response","trial_index":392,"time_elapsed":296910,"internal_node_id":"0.0-18.32-0.32","modal_type":"irrational","answered":"possible"},{"rt":null,"stimulus":"","key_press":null,"trial_type":"html-keyboard-response","trial_index":393,"time_elapsed":297413,"internal_node_id":"0.0-18.32-1.32"},{"rt":10734.135000035167,"responses":"{\"crt_1\":[\"5 cents\"],\"crt_2\":[\"100 minutes\"],\"crt_3\":[\"24 days\"],\"crt_4\":[\"9 days\"],\"crt_5\":[\"30 students\"],\"crt_6\":[\"$10\"],\"crt_7\":[\"has lost money.\"]}","question_order":"[0,1,2,3,4,5,6]","trial_type":"survey-multi-select","trial_index":394,"time_elapsed":308159,"internal_node_id":"0.0-19.0"},{"rt":30578.244999982417,"responses":"{\"bai_1\":[\"Not at all\"],\"bai_2\":[\"Not at all\"],\"bai_3\":[\"Not at all\"],\"bai_4\":[\"Not at all\"],\"bai_5\":[\"Not at all\"],\"bai_6\":[\"Not at all\"],\"bai_7\":[\"Not at all\"],\"bai_8\":[\"Not at all\"],\"bai_9\":[\"Not at all\"],\"bai_10\":[\"Not at all\"],\"bai_11\":[\"Not at all\"],\"bai_12\":[\"Not at all\"],\"bai_13\":[\"Not at all\"],\"bai_14\":[\"Not at all\"],\"bai_15\":[\"Not at all\"],\"bai_16\":[\"Not at all\"],\"bai_17\":[\"Not at all\"],\"bai_18\":[\"Not at all\"],\"bai_19\":[\"Not at all\"],\"bai_20\":[\"Not at all\"],\"bai_21\":[\"Not at all\"]}","question_order":"[0,1,2,3,4,5,6,7,8,9,10,11,12,13,14,15,16,17,18,19,20]","trial_type":"survey-multi-select","trial_index":395,"time_elapsed":338789,"internal_node_id":"0.0-20.0"},{"rt":63398.225000011735,"responses":"{\"TriPM_1\":[\"True\"],\"TriPM_2\":[\"True\"],\"TriPM_3\":[\"True\"],\"TriPM_4\":[\"True\"],\"TriPM_5\":[\"True\"],\"TriPM_6\":[\"True\"],\"TriPM_7\":[\"True\"],\"TriPM_8\":[\"True\"],\"TriPM_9\":[\"True\"],\"TriPM_10\":[\"True\"],\"TriPM_11\":[\"True\"],\"TriPM_12\":[\"True\"],\"TriPM_13\":[\"True\"],\"TriPM_14\":[\"True\"],\"TriPM_15\":[\"True\"],\"TriPM_16\":[\"True\"],\"TriPM_17\":[\"True\"],\"TriPM_18\":[\"True\"],\"TriPM_19\":[\"True\"],\"TriPM_20\":[\"True\"],\"TriPM_21\":[\"True\"],\"TriPM_22\":[\"True\"],\"TriPM_23\":[\"True\"],\"TriPM_24\":[\"True\"],\"TriPM_25\":[\"True\"],\"TriPM_26\":[\"True\"],\"TriPM_27\":[\"True\"],\"TriPM_28\":[\"True\"],\"TriPM_29\":[\"True\"],\"TriPM_30\":[\"True\"],\"TriPM_31\":[\"True\"],\"TriPM_32\":[\"True\"],\"TriPM_33\":[\"True\"],\"TriPM_34\":[\"True\"],\"TriPM_35\":[\"True\"],\"TriPM_36\":[\"True\"],\"TriPM_37\":[\"True\"],\"TriPM_38\":[\"True\"],\"TriPM_39\":[\"True\"]}","question_order":"[0,1,2,3,4,5,6,7,8,9,10,11,12,13,14,15,16,17,18,19,20,21,22,23,24,25,26,27,28,29,30,31,32,33,34,35,36,37,38]","trial_type":"survey-multi-select","trial_index":396,"time_elapsed":402324,"internal_node_id":"0.0-21.0"},{"rt":24441.350000095554,"responses":"{\"IRI_1\":[\"1\"],\"IRI_2\":[\"1\"],\"IRI_3\":[\"1\"],\"IRI_4\":[\"1\"],\"IRI_5\":[\"1\"],\"IRI_6\":[\"1\"],\"IRI_7\":[\"1\"],\"IRI_8\":[\"1\"],\"IRI_9\":[\"1\"],\"IRI_10\":[\"1\"],\"IRI_11\":[\"1\"],\"IRI_12\":[\"1\"],\"IRI_13\":[\"1\"],\"IRI_14\":[\"1\",\"2\",\"3\",\"4\",\"5\"],\"IRI_15\":[\"1\"],\"IRI_16\":[\"1\"]}","question_order":"[0,1,2,3,4,5,6,7,8,9,10,11,12,13,14,15]","trial_type":"survey-multi-select","trial_index":397,"time_elapsed":426807,"internal_node_id":"0.0-22.0"},{"rt":5775.424999999814,"stimulus":"<p>You responded correctly on NaN% of the trials.</p><p>Your average response time was NaNms.</p><p>Press any key to complete the experiment. Thank you!</p>","key_press":32,"trial_type":"html-keyboard-response","trial_index":398,"time_elapsed":432588,"internal_node_id":"0.0-23.0"}]}
