[
	{
		"rt": 2884.89999999851,
		"stimulus": "<DIV align='left'><div>&nbsp;</div><div>Please consider this information carefully before deciding whether to participate in this research.</div><div>&nbsp;</div><div>The purpose of this research is to examine which factors influence social judgment and decision-</div><div>making. You will be asked to make judgements about individuals and actions in social scenarios.</div><div>We are simply interested in your judgement. The study will take less than 1 hour to complete,</div><div>and you will receive less than $20 on Amazon Mechanical Turk. Your compensation and time</div><div>commitment are specified in the study description. There are no anticipated risks associated with</div><div>participating in this study. The effects of participating should be comparable to those you would</div><div>ordinarily experience from viewing a computer monitor and using a mouse or keyboard for a</div><div>similar amount of time. At the end of the study, we will provide an explanation of the questions</div><div>that motivate this line of research and will describe the potential implications.</div><div>&nbsp;</div><div>Your participation in this study is completely voluntary and you may refuse to participate or you</div><div>may choose to withdraw at any time without penalty or loss of benefits to you which are</div><div>otherwise entitled. Your participation in this study will remain confidential. No personally</div><div>identifiable information will be associated with your data. Also, all analyses of the data will be</div><div>averaged across all the participants, so your individual responses will never be specifically</div><div>analyzed.</div><div>&nbsp;</div><div>If you have questions or concerns about your participation or payment, or want to request a</div><div>summary of research findings, please contact Dr. Jonathan Phillips at</div><div><a href=mailto:Jonathan.S.Phillips@dartmouth.edu>Jonathan.S.Phillips@dartmouth.edu</a>.</div><div>&nbsp;</div><div>Please save a copy of this form for your records.</div><div>&nbsp;</div></DIV><div>Agreement:</div><DIV align='left'><div>The nature and purpose of this research have been sufficiently explained and I agree to</div><div>participate in this study. I understand that I am free to withdraw at any time without incurring</div><div>any penalty. Please consent by clicking the button below to continue. Otherwise, please exit the</div><div>study at any time.</div><div>&nbsp;</div></DIV>",
		"button_pressed": "0",
		"internal_type": "consent",
		"trial_type": "html-button-response",
		"trial_index": 0,
		"time_elapsed": 2898,
		"internal_node_id": "0.0-0.0"
	},
	{
		"rt": 21214.5,
		"responses": "{\"Q0\":\"22\",\"Q1\":\"right\",\"Q2\":\"english \",\"Q3\":\"usa\",\"Q4\":\"usa\",\"Q5\":\"male\",\"Q6\":\"cool\",\"Q7\":\"214532314214\"}",
		"internal_type": "participant_info",
		"trial_type": "survey-text",
		"trial_index": 1,
		"time_elapsed": 24124,
		"internal_node_id": "0.0-1.0"
	},
	{
		"rt": 985.8000000044703,
		"stimulus": "<h2> Instructions</h2><p>In this study, we'd like you to make judgments about whether something is possible or impossible. To indicate that something is possible, please press the [f] key; to indicate that something is impossible, please press the [j] key. To get you used to this, you will first go through a warm-up phase. On these trials, press [f] if you see the word 'Possible' and [j] if you see the word 'Impossible.'' ***Please take your time and answer as correctly as possible.*** </p><p>Press any key to continue</p>",
		"key_press": 32,
		"trial_type": "html-keyboard-response",
		"trial_index": 2,
		"time_elapsed": 25112,
		"internal_node_id": "0.0-2.0"
	},
	{
		"rt": 865.2000000029802,
		"correct": true,
		"stimulus": "Possible",
		"key_press": 70,
		"trial_type": "categorize-html",
		"trial_index": 3,
		"time_elapsed": 27983,
		"internal_node_id": "0.0-3.0-0.0"
	},
	{
		"rt": 597,
		"correct": true,
		"stimulus": "Impossible",
		"key_press": 74,
		"trial_type": "categorize-html",
		"trial_index": 4,
		"time_elapsed": 30589,
		"internal_node_id": "0.0-3.0-0.1"
	},
	{
		"rt": 885.4000000059605,
		"correct": true,
		"stimulus": "Impossible",
		"key_press": 74,
		"trial_type": "categorize-html",
		"trial_index": 5,
		"time_elapsed": 33483,
		"internal_node_id": "0.0-3.0-0.2"
	},
	{
		"rt": 441.70000000298023,
		"correct": true,
		"stimulus": "Possible",
		"key_press": 70,
		"trial_type": "categorize-html",
		"trial_index": 6,
		"time_elapsed": 35930,
		"internal_node_id": "0.0-3.0-0.3"
	},
	{
		"rt": 501.5,
		"stimulus": "<h2>In this part, you will read a story and then will be judging whether certain events are possible or impossible.</h2> <p>Press any key to continue</p>",
		"key_press": 32,
		"trial_type": "html-keyboard-response",
		"trial_index": 7,
		"time_elapsed": 36434,
		"internal_node_id": "0.0-4.0"
	},
	{
		"view_history": "[{\"page_index\":0,\"viewing_time\":709.5},{\"page_index\":1,\"viewing_time\":977.5999999940395}]",
		"rt": 1688.1999999955297,
		"internal_type": "instructions",
		"trial_type": "instructions",
		"trial_index": 8,
		"time_elapsed": 38126,
		"internal_node_id": "0.0-5.0"
	},
	{
		"rt": 994.3000000044703,
		"stimulus": "get a new car by thinking",
		"key_press": 70,
		"trial_type": "html-keyboard-response",
		"trial_index": 9,
		"time_elapsed": 39123,
		"internal_node_id": "0.0-6.0-0.0",
		"modal_type": "impossible",
		"speed": "fast",
		"vignette": "Josh",
		"internal_type": "stimulus",
		"answered": "possible"
	},
	{
		"rt": null,
		"stimulus": "",
		"key_press": null,
		"trial_type": "html-keyboard-response",
		"trial_index": 10,
		"time_elapsed": 39629,
		"internal_node_id": "0.0-6.0-1.0"
	},
	{
		"rt": 199.5,
		"stimulus": "ride a cat to the airport",
		"key_press": 70,
		"trial_type": "html-keyboard-response",
		"trial_index": 11,
		"time_elapsed": 39831,
		"internal_node_id": "0.0-6.1-0.1",
		"modal_type": "impossible",
		"speed": "fast",
		"vignette": "Josh",
		"internal_type": "stimulus",
		"answered": "possible"
	},
	{
		"rt": null,
		"stimulus": "",
		"key_press": null,
		"trial_type": "html-keyboard-response",
		"trial_index": 12,
		"time_elapsed": 40333,
		"internal_node_id": "0.0-6.1-1.1"
	},
	{
		"rt": 106.69999999552965,
		"stimulus": "teleport himself to the airport",
		"key_press": 70,
		"trial_type": "html-keyboard-response",
		"trial_index": 13,
		"time_elapsed": 40442,
		"internal_node_id": "0.0-6.2-0.2",
		"modal_type": "impossible",
		"speed": "fast",
		"vignette": "Josh",
		"internal_type": "stimulus",
		"answered": "possible"
	},
	{
		"rt": null,
		"stimulus": "",
		"key_press": null,
		"trial_type": "html-keyboard-response",
		"trial_index": 14,
		"time_elapsed": 40946,
		"internal_node_id": "0.0-6.2-1.2"
	},
	{
		"rt": 58.399999998509884,
		"stimulus": "levitate and fly to the airport",
		"key_press": 70,
		"trial_type": "html-keyboard-response",
		"trial_index": 15,
		"time_elapsed": 41007,
		"internal_node_id": "0.0-6.3-0.3",
		"modal_type": "impossible",
		"speed": "fast",
		"vignette": "Josh",
		"internal_type": "stimulus",
		"answered": "possible"
	},
	{
		"rt": null,
		"stimulus": "",
		"key_press": null,
		"trial_type": "html-keyboard-response",
		"trial_index": 16,
		"time_elapsed": 41509,
		"internal_node_id": "0.0-6.3-1.3"
	},
	{
		"rt": 139.60000000149012,
		"stimulus": "reschedule for a later flight",
		"key_press": 70,
		"trial_type": "html-keyboard-response",
		"trial_index": 17,
		"time_elapsed": 41651,
		"internal_node_id": "0.0-6.4-0.4",
		"modal_type": "possible",
		"speed": "fast",
		"vignette": "Josh",
		"internal_type": "stimulus",
		"answered": "possible"
	},
	{
		"rt": null,
		"stimulus": "",
		"key_press": null,
		"trial_type": "html-keyboard-response",
		"trial_index": 18,
		"time_elapsed": 42154,
		"internal_node_id": "0.0-6.4-1.4"
	},
	{
		"rt": 182,
		"stimulus": "ask the gas station clerk for help",
		"key_press": 70,
		"trial_type": "html-keyboard-response",
		"trial_index": 19,
		"time_elapsed": 42339,
		"internal_node_id": "0.0-6.5-0.5",
		"modal_type": "possible",
		"speed": "fast",
		"vignette": "Josh",
		"internal_type": "stimulus",
		"answered": "possible"
	},
	{
		"rt": null,
		"stimulus": "",
		"key_press": null,
		"trial_type": "html-keyboard-response",
		"trial_index": 20,
		"time_elapsed": 42842,
		"internal_node_id": "0.0-6.5-1.5"
	},
	{
		"rt": 159.59999999403954,
		"stimulus": "call a friend for a ride",
		"key_press": 70,
		"trial_type": "html-keyboard-response",
		"trial_index": 21,
		"time_elapsed": 43003,
		"internal_node_id": "0.0-6.6-0.6",
		"modal_type": "possible",
		"speed": "fast",
		"vignette": "Josh",
		"internal_type": "stimulus",
		"answered": "possible"
	},
	{
		"rt": null,
		"stimulus": "",
		"key_press": null,
		"trial_type": "html-keyboard-response",
		"trial_index": 22,
		"time_elapsed": 43508,
		"internal_node_id": "0.0-6.6-1.6"
	},
	{
		"rt": 180.40000000596046,
		"stimulus": "take public transportation",
		"key_press": 70,
		"trial_type": "html-keyboard-response",
		"trial_index": 23,
		"time_elapsed": 43690,
		"internal_node_id": "0.0-6.7-0.7",
		"modal_type": "possible",
		"speed": "fast",
		"vignette": "Josh",
		"internal_type": "stimulus",
		"answered": "possible"
	},
	{
		"rt": null,
		"stimulus": "",
		"key_press": null,
		"trial_type": "html-keyboard-response",
		"trial_index": 24,
		"time_elapsed": 44195,
		"internal_node_id": "0.0-6.7-1.7"
	},
	{
		"rt": 193.39999999850988,
		"stimulus": "beckon a friend passing by",
		"key_press": 70,
		"trial_type": "html-keyboard-response",
		"trial_index": 25,
		"time_elapsed": 44390,
		"internal_node_id": "0.0-6.8-0.8",
		"modal_type": "improbable",
		"speed": "fast",
		"vignette": "Josh",
		"internal_type": "stimulus",
		"answered": "possible"
	},
	{
		"rt": null,
		"stimulus": "",
		"key_press": null,
		"trial_type": "html-keyboard-response",
		"trial_index": 26,
		"time_elapsed": 44895,
		"internal_node_id": "0.0-6.8-1.8"
	},
	{
		"rt": 180.89999999850988,
		"stimulus": "convince the airport to delay flight",
		"key_press": 70,
		"trial_type": "html-keyboard-response",
		"trial_index": 27,
		"time_elapsed": 45078,
		"internal_node_id": "0.0-6.9-0.9",
		"modal_type": "improbable",
		"speed": "fast",
		"vignette": "Josh",
		"internal_type": "stimulus",
		"answered": "possible"
	},
	{
		"rt": null,
		"stimulus": "",
		"key_press": null,
		"trial_type": "html-keyboard-response",
		"trial_index": 28,
		"time_elapsed": 45583,
		"internal_node_id": "0.0-6.9-1.9"
	},
	{
		"rt": 149.60000000149012,
		"stimulus": "get a stranger to drive him",
		"key_press": 70,
		"trial_type": "html-keyboard-response",
		"trial_index": 29,
		"time_elapsed": 45733,
		"internal_node_id": "0.0-6.10-0.10",
		"modal_type": "improbable",
		"speed": "fast",
		"vignette": "Josh",
		"internal_type": "stimulus",
		"answered": "possible"
	},
	{
		"rt": null,
		"stimulus": "",
		"key_press": null,
		"trial_type": "html-keyboard-response",
		"trial_index": 30,
		"time_elapsed": 46236,
		"internal_node_id": "0.0-6.10-1.10"
	},
	{
		"rt": 135.20000000298023,
		"stimulus": "arrange for a private plane",
		"key_press": 70,
		"trial_type": "html-keyboard-response",
		"trial_index": 31,
		"time_elapsed": 46373,
		"internal_node_id": "0.0-6.11-0.11",
		"modal_type": "improbable",
		"speed": "fast",
		"vignette": "Josh",
		"internal_type": "stimulus",
		"answered": "possible"
	},
	{
		"rt": null,
		"stimulus": "",
		"key_press": null,
		"trial_type": "html-keyboard-response",
		"trial_index": 32,
		"time_elapsed": 46875,
		"internal_node_id": "0.0-6.11-1.11"
	},
	{
		"rt": 136,
		"stimulus": "book a flight for next year",
		"key_press": 70,
		"trial_type": "html-keyboard-response",
		"trial_index": 33,
		"time_elapsed": 47013,
		"internal_node_id": "0.0-6.12-0.12",
		"modal_type": "irrational",
		"speed": "fast",
		"vignette": "Josh",
		"internal_type": "stimulus",
		"answered": "possible"
	},
	{
		"rt": null,
		"stimulus": "",
		"key_press": null,
		"trial_type": "html-keyboard-response",
		"trial_index": 34,
		"time_elapsed": 47514,
		"internal_node_id": "0.0-6.12-1.12"
	},
	{
		"rt": 136.5,
		"stimulus": "sell car for ride to airport",
		"key_press": 70,
		"trial_type": "html-keyboard-response",
		"trial_index": 35,
		"time_elapsed": 47652,
		"internal_node_id": "0.0-6.13-0.13",
		"modal_type": "irrational",
		"speed": "fast",
		"vignette": "Josh",
		"internal_type": "stimulus",
		"answered": "possible"
	},
	{
		"rt": null,
		"stimulus": "",
		"key_press": null,
		"trial_type": "html-keyboard-response",
		"trial_index": 36,
		"time_elapsed": 48157,
		"internal_node_id": "0.0-6.13-1.13"
	},
	{
		"rt": 153.10000000149012,
		"stimulus": "pay 1000 dollars for a ride",
		"key_press": 70,
		"trial_type": "html-keyboard-response",
		"trial_index": 37,
		"time_elapsed": 48312,
		"internal_node_id": "0.0-6.14-0.14",
		"modal_type": "irrational",
		"speed": "fast",
		"vignette": "Josh",
		"internal_type": "stimulus",
		"answered": "possible"
	},
	{
		"rt": null,
		"stimulus": "",
		"key_press": null,
		"trial_type": "html-keyboard-response",
		"trial_index": 38,
		"time_elapsed": 48815,
		"internal_node_id": "0.0-6.14-1.14"
	},
	{
		"rt": 138.70000000298023,
		"stimulus": "try to run there in time",
		"key_press": 70,
		"trial_type": "html-keyboard-response",
		"trial_index": 39,
		"time_elapsed": 48956,
		"internal_node_id": "0.0-6.15-0.15",
		"modal_type": "irrational",
		"speed": "fast",
		"vignette": "Josh",
		"internal_type": "stimulus",
		"answered": "possible"
	},
	{
		"rt": null,
		"stimulus": "",
		"key_press": null,
		"trial_type": "html-keyboard-response",
		"trial_index": 40,
		"time_elapsed": 49461,
		"internal_node_id": "0.0-6.15-1.15"
	},
	{
		"rt": 158.70000000298023,
		"stimulus": "steal another person's car",
		"key_press": 70,
		"trial_type": "html-keyboard-response",
		"trial_index": 41,
		"time_elapsed": 49621,
		"internal_node_id": "0.0-6.16-0.16",
		"modal_type": "immoral",
		"speed": "fast",
		"vignette": "Josh",
		"internal_type": "stimulus",
		"answered": "possible"
	},
	{
		"rt": null,
		"stimulus": "",
		"key_press": null,
		"trial_type": "html-keyboard-response",
		"trial_index": 42,
		"time_elapsed": 50126,
		"internal_node_id": "0.0-6.16-1.16"
	},
	{
		"rt": 109.10000000149012,
		"stimulus": "take a taxi without paying",
		"key_press": 70,
		"trial_type": "html-keyboard-response",
		"trial_index": 43,
		"time_elapsed": 50237,
		"internal_node_id": "0.0-6.17-0.17",
		"modal_type": "immoral",
		"speed": "fast",
		"vignette": "Josh",
		"internal_type": "stimulus",
		"answered": "possible"
	},
	{
		"rt": null,
		"stimulus": "",
		"key_press": null,
		"trial_type": "html-keyboard-response",
		"trial_index": 44,
		"time_elapsed": 50741,
		"internal_node_id": "0.0-6.17-1.17"
	},
	{
		"rt": 132,
		"stimulus": "take another driver hostage",
		"key_press": 70,
		"trial_type": "html-keyboard-response",
		"trial_index": 45,
		"time_elapsed": 50875,
		"internal_node_id": "0.0-6.18-0.18",
		"modal_type": "immoral",
		"speed": "fast",
		"vignette": "Josh",
		"internal_type": "stimulus",
		"answered": "possible"
	},
	{
		"rt": null,
		"stimulus": "",
		"key_press": null,
		"trial_type": "html-keyboard-response",
		"trial_index": 46,
		"time_elapsed": 51380,
		"internal_node_id": "0.0-6.18-1.18"
	},
	{
		"rt": 172.19999999552965,
		"stimulus": "sneak onto public transportation",
		"key_press": 70,
		"trial_type": "html-keyboard-response",
		"trial_index": 47,
		"time_elapsed": 51554,
		"internal_node_id": "0.0-6.19-0.19",
		"modal_type": "immoral",
		"speed": "fast",
		"vignette": "Josh",
		"internal_type": "stimulus",
		"answered": "possible"
	},
	{
		"rt": null,
		"stimulus": "",
		"key_press": null,
		"trial_type": "html-keyboard-response",
		"trial_index": 48,
		"time_elapsed": 52058,
		"internal_node_id": "0.0-6.19-1.19"
	},
	{
		"rt": 12061.80000000447,
		"responses": "{\"crt_1\":[\"1 cent\"],\"crt_2\":[\"5 minutes\"],\"crt_3\":[\"36 days\"],\"crt_4\":[\"3 days\"],\"crt_5\":[\"30 students\"],\"crt_6\":[\"$30\"],\"crt_7\":[\"is ahead of where he began.\"]}",
		"question_order": "[0,1,2,3,4,5,6]",
		"internal_type": "crt",
		"trial_type": "survey-multi-select",
		"trial_index": 49,
		"time_elapsed": 64140,
		"internal_node_id": "0.0-7.0"
	},
	{
		"rt": 25045.70000000298,
		"responses": "{\"bai_1\":[\"Mildly – but it didn’t bother me much\"],\"bai_2\":[\"Severely – it bothered me a lot\"],\"bai_3\":[\"Severely – it bothered me a lot\"],\"bai_4\":[\"Mildly – but it didn’t bother me much\"],\"bai_5\":[\"Mildly – but it didn’t bother me much\"],\"bai_6\":[\"Severely – it bothered me a lot\"],\"bai_7\":[\"Mildly – but it didn’t bother me much\"],\"bai_8\":[\"Moderately – it wasn’t pleasant at times\"],\"bai_9\":[\"Mildly – but it didn’t bother me much\"],\"bai_10\":[\"Mildly – but it didn’t bother me much\"],\"bai_11\":[\"Mildly – but it didn’t bother me much\"],\"bai_12\":[\"Mildly – but it didn’t bother me much\"],\"bai_13\":[\"Moderately – it wasn’t pleasant at times\"],\"bai_14\":[\"Severely – it bothered me a lot\"],\"bai_15\":[\"Mildly – but it didn’t bother me much\"],\"bai_16\":[\"Moderately – it wasn’t pleasant at times\"],\"bai_17\":[\"Mildly – but it didn’t bother me much\"],\"bai_18\":[\"Mildly – but it didn’t bother me much\"],\"bai_19\":[\"Moderately – it wasn’t pleasant at times\"],\"bai_20\":[\"Mildly – but it didn’t bother me much\"],\"bai_21\":[\"Mildly – but it didn’t bother me much\"]}",
		"question_order": "[0,1,2,3,4,5,6,7,8,9,10,11,12,13,14,15,16,17,18,19,20]",
		"internal_type": "bai",
		"trial_type": "survey-multi-select",
		"trial_index": 50,
		"time_elapsed": 89239,
		"internal_node_id": "0.0-8.0"
	},
	{
		"rt": 24382.80000000447,
		"responses": "{\"bdi_1\":[\"1 -- I feel sad much of the time.\"],\"bdi_2\":[\"1 -- I feel more discouraged about my future than I used to be.\"],\"bdi_3\":[\"1 -- I feel more discouraged about my future than I used to\"],\"bdi_4\":[\"1 -- I don't enjoy things as much as I used to.\"],\"bdi_5\":[\"1 -- I feel guilty over many things I have done or should have done.\"],\"bdi_6\":[\"1 -- I feel I may be punished.\"],\"bdi_7\":[\"1 -- I have lost confidence in myself.\"],\"bdi_8\":[\"1 -- I am more critical of myself than I used to be.\"],\"bdi_10\":[\"1 -- I cry more than I used to.\"],\"bdi_11\":[\"1 -- I feel more restless or wound up than usual.\"],\"bdi_12\":[\"1 -- I am less interested in other people or things than before.\"],\"bdi_13\":[\"1 -- I find it more difficult to make decisions than usual.\"],\"bdi_14\":[\"1 -- I don't consider myself as worthwhile and useful as I used to.\"],\"bdi_15\":[\"1 -- I have less energy than I used to have.\"],\"bdi_16\":[\"1a -- I sleep somewhat more than usual.\"],\"bdi_17\":[\"1 -- I am more irritable than usual.\"],\"bdi_18\":[\"1a -- My appetite is somewhat less than usual.\"],\"bdi_19\":[\"1 -- I can't concentrate as well as usual.\"],\"bdi_20\":[\"1 -- I get more tired or fatigued more easily than usual.\"],\"bdi_21\":[\"1 -- I am less interested in sex than I used to be.\"]}",
		"question_order": "[0,1,2,3,4,5,6,7,8,9,10,11,12,13,14,15,16,17,18,19]",
		"internal_type": "bdi",
		"trial_type": "survey-multi-select",
		"trial_index": 51,
		"time_elapsed": 113675,
		"internal_node_id": "0.0-9.0"
	},
	{
		"rt": 1120.5,
		"stimulus": "<p>You responded correctly on NaN% of the trials.</p><p>Your average response time was NaNms.</p><p>Press any key to complete the experiment. Thank you!</p>",
		"key_press": 32,
		"trial_type": "html-keyboard-response",
		"trial_index": 52,
		"time_elapsed": 114803,
		"internal_node_id": "0.0-10.0"
	}
]